fx fy fz tx ty tz 
-1.443972 0.580077 1.356501 -0.300320 -1.018632 -0.122392
-1.438777 0.575218 1.356729 -0.299615 -1.017181 -0.122466
-1.440567 0.579330 1.342424 -0.300618 -1.018584 -0.123780
-1.436185 0.557763 1.370761 -0.298312 -1.018859 -0.124734
-1.444850 0.572977 1.401656 -0.301002 -1.020054 -0.125985
-1.440445 0.544801 1.449171 -0.297871 -1.018086 -0.125701
-1.437047 0.530680 1.482540 -0.297648 -1.015280 -0.125291
-1.447049 0.525592 1.478870 -0.301061 -1.018678 -0.126545
-1.444356 0.579945 1.479863 -0.312106 -1.018265 -0.127198
-1.446709 0.573920 1.473244 -0.316768 -1.019522 -0.128222
-1.435473 0.525908 1.590056 -0.317427 -1.012744 -0.127788
-1.435769 0.518652 1.604160 -0.318761 -1.013262 -0.128337
-1.443376 0.537098 1.605597 -0.324003 -1.015000 -0.129227
-1.451087 0.545602 1.596920 -0.330293 -1.017627 -0.130913
-1.445973 0.550764 1.602969 -0.336347 -1.019498 -0.132032
-1.443080 0.571598 1.619847 -0.343191 -1.019421 -0.132679
-1.447619 0.561215 1.668108 -0.345862 -1.020799 -0.133425
-1.437349 0.548406 1.707052 -0.349252 -1.019576 -0.133691
-1.442910 0.571974 1.716422 -0.357818 -1.023953 -0.134960
-1.439357 0.627943 1.703090 -0.370566 -1.026417 -0.136278
-1.429900 0.621578 1.694422 -0.374093 -1.027335 -0.136328
-1.426750 0.599752 1.741670 -0.375753 -1.029670 -0.136438
-1.446286 0.583226 1.767910 -0.376117 -1.034727 -0.137304
-1.437770 0.611421 1.754253 -0.381625 -1.034636 -0.137887
-1.434365 0.599892 1.760111 -0.381796 -1.034144 -0.138048
-1.430837 0.610083 1.750692 -0.384737 -1.033643 -0.139179
-1.444366 0.595106 1.754386 -0.383673 -1.035690 -0.140573
-1.456307 0.593955 1.759051 -0.383811 -1.037242 -0.141588
-1.447882 0.627334 1.730775 -0.387975 -1.033160 -0.140583
-1.435113 0.641479 1.711667 -0.389777 -1.029893 -0.139435
-1.441574 0.647820 1.700025 -0.390427 -1.030451 -0.139114
-1.435212 0.655958 1.695985 -0.390604 -1.028599 -0.137777
-1.432011 0.662929 1.674662 -0.390320 -1.027333 -0.136950
-1.439062 0.671819 1.659139 -0.390292 -1.028822 -0.136681
-1.423814 0.672880 1.629849 -0.388648 -1.023629 -0.134943
-1.427503 0.667395 1.636289 -0.386412 -1.023809 -0.134436
-1.432928 0.666802 1.624084 -0.384723 -1.024115 -0.134407
-1.418888 0.658737 1.631442 -0.381416 -1.020112 -0.133315
-1.426244 0.646706 1.616742 -0.378328 -1.021602 -0.133671
-1.435358 0.638977 1.619697 -0.375116 -1.024034 -0.134094
-1.431497 0.637615 1.607174 -0.373180 -1.022159 -0.133698
-1.429340 0.610242 1.623072 -0.367474 -1.020534 -0.133112
-1.428942 0.607899 1.625659 -0.365238 -1.018983 -0.132609
-1.435594 0.594257 1.632407 -0.361981 -1.020259 -0.132742
-1.433260 0.584211 1.638133 -0.359138 -1.018410 -0.132294
-1.437055 0.572040 1.653883 -0.356965 -1.018557 -0.132338
-1.435398 0.554203 1.667041 -0.354335 -1.017467 -0.132076
-1.440207 0.526486 1.693852 -0.350678 -1.018533 -0.132516
-1.437317 0.532552 1.696416 -0.352730 -1.017416 -0.132547
-1.441517 0.527695 1.693421 -0.355363 -1.018722 -0.133424
-1.436228 0.531472 1.713393 -0.358386 -1.016325 -0.133508
-1.452967 0.515440 1.746409 -0.358327 -1.018972 -0.134486
-1.448693 0.525195 1.759988 -0.362440 -1.018330 -0.134995
-1.444736 0.520033 1.770638 -0.364831 -1.018486 -0.136235
-1.446331 0.553701 1.768372 -0.372938 -1.020114 -0.137713
-1.441933 0.550029 1.776761 -0.376867 -1.019693 -0.138764
-1.445572 0.547234 1.820070 -0.380680 -1.020203 -0.139351
-1.444342 0.544496 1.823415 -0.384556 -1.021670 -0.140299
-1.439919 0.574011 1.840505 -0.393073 -1.021569 -0.141264
-1.439239 0.566720 1.880907 -0.394824 -1.021066 -0.141225
-1.422685 0.573873 1.869634 -0.399413 -1.020139 -0.141727
-1.444307 0.575463 1.886230 -0.402903 -1.025901 -0.143673
-1.430411 0.603047 1.909767 -0.409812 -1.024357 -0.144082
-1.428307 0.573548 1.893453 -0.410623 -1.026106 -0.145211
-1.431404 0.600358 1.898769 -0.418489 -1.027501 -0.146173
-1.438940 0.605730 1.934652 -0.422318 -1.028126 -0.146776
-1.430617 0.596104 1.920562 -0.426239 -1.027385 -0.147415
-1.428485 0.598951 1.950680 -0.428920 -1.025190 -0.147255
-1.440752 0.619026 1.961122 -0.434135 -1.028702 -0.148490
-1.430705 0.611157 1.963724 -0.434330 -1.026439 -0.148495
-1.431287 0.626548 1.960293 -0.437012 -1.027834 -0.149221
-1.442602 0.631319 1.940989 -0.437540 -1.029861 -0.150461
-1.431945 0.625818 1.939000 -0.436237 -1.028156 -0.150510
-1.430099 0.611527 1.943674 -0.433524 -1.026983 -0.150908
-1.436451 0.629552 1.915268 -0.436152 -1.029824 -0.151924
-1.434820 0.649459 1.889634 -0.438145 -1.029274 -0.151978
-1.430986 0.652324 1.888295 -0.438476 -1.028693 -0.151991
-1.415649 0.655204 1.850376 -0.438790 -1.024242 -0.151426
-1.423365 0.691976 1.860966 -0.442398 -1.023925 -0.151317
-1.433573 0.747858 1.859604 -0.448022 -1.024663 -0.151831
-1.427404 0.714954 1.787296 -0.443981 -1.025023 -0.151842
-1.419058 0.758208 1.730437 -0.449295 -1.023901 -0.152348
-1.431205 0.777094 1.711590 -0.450246 -1.026860 -0.153253
-1.415278 0.778752 1.672007 -0.447575 -1.022113 -0.152789
-1.408150 0.754326 1.663049 -0.440326 -1.019506 -0.151954
-1.417940 0.752337 1.662798 -0.434179 -1.019154 -0.151195
-1.415115 0.719985 1.613121 -0.422338 -1.020065 -0.151081
-1.416416 0.717483 1.594171 -0.411763 -1.020652 -0.150335
-1.428000 0.688986 1.524117 -0.394050 -1.025870 -0.149239
-1.421543 0.671169 1.494779 -0.383576 -1.025236 -0.147586
-1.422034 0.616189 1.480055 -0.363631 -1.025178 -0.144842
-1.421727 0.597164 1.466102 -0.352655 -1.024554 -0.142830
-1.426728 0.575827 1.435253 -0.342935 -1.026265 -0.141344
-1.427609 0.561544 1.421340 -0.335308 -1.025623 -0.139830
-1.434473 0.534595 1.401248 -0.328248 -1.028532 -0.139715
-1.430151 0.526449 1.386440 -0.324140 -1.028220 -0.139471
-1.436256 0.496622 1.381114 -0.318019 -1.028587 -0.138976
-1.437532 0.494133 1.368560 -0.314642 -1.029361 -0.138924
-1.444431 0.482056 1.357775 -0.308481 -1.031056 -0.139047
-1.443231 0.494519 1.350937 -0.306222 -1.030848 -0.138864
-1.445066 0.476731 1.325723 -0.299126 -1.033364 -0.139339
-1.453093 0.469125 1.302454 -0.294292 -1.035747 -0.139272
-1.461380 0.467225 1.292941 -0.287956 -1.037436 -0.139227
-1.453265 0.478273 1.269543 -0.285769 -1.036275 -0.138959
-1.452971 0.461910 1.258988 -0.280722 -1.036637 -0.138763
-1.454929 0.458351 1.257036 -0.279391 -1.037507 -0.138950
-1.459909 0.458478 1.264435 -0.281073 -1.038584 -0.139504
-1.466076 0.481914 1.275885 -0.288939 -1.039636 -0.140478
-1.476720 0.489539 1.280029 -0.293378 -1.042220 -0.141473
-1.473179 0.495640 1.277105 -0.297858 -1.041179 -0.141762
-1.472109 0.507054 1.283054 -0.303017 -1.040421 -0.142037
-1.482928 0.520797 1.293666 -0.307766 -1.041559 -0.142452
-1.477477 0.533670 1.284487 -0.311599 -1.040621 -0.142144
-1.483558 0.523381 1.290842 -0.311128 -1.040188 -0.141501
-1.470007 0.523882 1.304303 -0.312190 -1.037873 -0.140575
-1.471641 0.505337 1.327250 -0.310242 -1.036897 -0.139581
-1.475454 0.474714 1.335563 -0.307063 -1.038342 -0.139608
-1.479688 0.466389 1.362445 -0.306627 -1.038411 -0.139300
-1.475191 0.433019 1.383499 -0.303401 -1.035752 -0.138529
-1.470653 0.423817 1.426007 -0.303363 -1.033430 -0.137578
-1.471580 0.441874 1.472626 -0.307557 -1.031829 -0.136998
-1.480120 0.420772 1.518474 -0.309005 -1.032716 -0.136782
-1.469601 0.410556 1.550151 -0.310944 -1.029784 -0.136167
-1.461319 0.404209 1.590580 -0.313432 -1.027550 -0.135760
-1.460837 0.444466 1.581751 -0.322250 -1.027594 -0.136913
-1.463110 0.446251 1.597073 -0.325028 -1.028048 -0.138285
-1.460527 0.392555 1.668671 -0.319845 -1.024094 -0.138871
-1.467811 0.348531 1.776123 -0.317490 -1.023948 -0.140383
-1.465365 0.377742 1.769629 -0.332307 -1.024863 -0.142987
-1.465218 0.461085 1.723086 -0.360904 -1.030736 -0.146836
-1.465303 0.526704 1.765978 -0.386877 -1.028822 -0.147253
-1.445534 0.436163 1.917733 -0.396353 -1.019657 -0.145161
-1.435484 0.419877 2.053491 -0.405860 -1.018054 -0.144890
-1.480454 0.458995 2.066981 -0.420112 -1.034654 -0.148509
-1.435236 0.558524 2.060659 -0.438035 -1.030296 -0.149045
-1.401129 0.541193 2.081223 -0.430759 -1.030761 -0.150126
-1.377729 0.516781 2.165087 -0.426147 -1.030629 -0.153364
-1.386084 0.489876 2.215077 -0.427965 -1.037823 -0.159477
-1.388014 0.606802 2.101898 -0.459807 -1.045282 -0.168061
-1.421964 0.789723 1.973693 -0.493444 -1.055374 -0.173848
-1.409304 0.890520 1.788502 -0.517240 -1.051182 -0.173877
-1.392629 0.617567 2.143681 -0.478559 -1.035452 -0.167673
-1.415948 0.560568 2.273485 -0.474591 -1.040461 -0.168513
-1.407530 0.648433 2.361489 -0.486792 -1.038443 -0.172430
-1.381706 0.610767 2.310239 -0.480196 -1.046582 -0.181930
-1.431796 0.704174 2.156914 -0.497208 -1.068243 -0.197133
-1.436858 0.894163 1.923632 -0.520049 -1.071044 -0.206088
-1.391622 0.722786 2.161122 -0.491608 -1.048814 -0.204264
-1.441015 0.610933 2.782289 -0.463982 -1.033199 -0.199600
-1.455033 0.448814 2.582487 -0.453366 -1.055630 -0.209041
-1.357820 1.283370 1.562950 -0.589301 -1.061507 -0.219651
-1.267803 1.526745 1.796356 -0.615590 -1.031964 -0.217024
-1.323769 0.738401 2.626456 -0.507495 -1.010442 -0.207984
-1.352361 0.334418 2.523518 -0.463368 -1.039476 -0.220629
-1.453370 1.102766 1.895034 -0.574463 -1.066848 -0.232739
-1.356133 1.246287 1.932520 -0.585036 -1.037121 -0.227015
-1.352245 0.539190 2.498995 -0.486080 -1.031343 -0.220074
-1.413979 0.596323 2.323228 -0.499811 -1.053982 -0.225841
-1.285059 0.664992 2.434303 -0.509891 -1.026921 -0.223104
-1.250958 0.782990 2.343209 -0.533200 -1.038320 -0.231755
-1.318867 1.442794 1.499468 -0.643195 -1.070648 -0.245075
-1.261838 0.882168 2.474770 -0.552235 -1.006534 -0.227269
-1.276769 0.608385 2.464202 -0.514901 -1.028172 -0.233431
-1.421735 1.154175 2.336839 -0.588946 -1.059158 -0.242041
-1.260948 0.974330 2.698376 -0.568897 -1.025164 -0.234383
-1.165575 0.999606 2.322936 -0.609796 -1.044467 -0.240056
-1.181314 0.586729 4.261654 -0.552159 -1.021893 -0.229681
-1.196457 0.030139 5.025452 -0.526146 -1.058505 -0.241049
-1.285590 0.742076 5.522417 -0.654904 -1.077631 -0.249854
-1.232863 0.608262 6.616456 -0.652615 -1.054881 -0.242003
-1.196640 0.141048 7.447986 -0.624771 -1.089549 -0.247121
-1.182543 0.416401 8.042862 -0.691964 -1.130239 -0.252487
-1.078582 0.289874 9.130319 -0.713686 -1.126132 -0.235043
-0.737340 -0.298612 9.983174 -0.679458 -1.101776 -0.220438
-0.596563 -1.045502 10.541390 -0.626062 -1.111725 -0.216466
-0.977140 -0.973301 10.131051 -0.675268 -1.159171 -0.218678
-0.886558 -1.144220 9.588263 -0.683877 -1.147255 -0.225153
-1.018259 -1.924002 9.838643 -0.536294 -1.103695 -0.215663
-1.023091 -1.950582 9.479974 -0.496903 -1.109505 -0.222372
-1.184363 -1.843577 8.494323 -0.473071 -1.120672 -0.227564
-1.220384 -1.602329 7.513258 -0.446021 -1.067726 -0.219057
-1.244979 -1.465747 6.786478 -0.412060 -1.043324 -0.218375
-1.309004 -1.534325 6.124029 -0.358089 -1.037695 -0.219741
-1.550171 -1.621005 5.771948 -0.319284 -1.032467 -0.215473
-1.539638 -1.452050 5.046905 -0.321984 -1.041050 -0.223418
-1.527142 -1.434147 4.889536 -0.310711 -1.027884 -0.220850
-1.394400 -1.443156 4.690162 -0.284125 -1.010142 -0.220604
-1.386704 -1.320218 4.557048 -0.272586 -1.016325 -0.224295
-1.623709 -1.256604 4.412428 -0.260774 -1.037218 -0.223807
-1.529159 -1.079100 4.269882 -0.266474 -1.011972 -0.219505
-1.562032 -0.981477 4.394279 -0.274589 -1.019850 -0.224101
-1.633889 -1.005682 4.590563 -0.273783 -1.040003 -0.230173
-1.647895 -0.963500 4.857683 -0.274043 -1.049340 -0.233157
-1.562616 -0.834344 5.192991 -0.273738 -1.015839 -0.225261
-1.428435 -0.761708 5.446981 -0.283883 -0.980384 -0.218602
-1.548411 -0.667035 5.659306 -0.317143 -0.995893 -0.222152
-1.555481 -0.697670 6.095984 -0.346590 -0.984769 -0.218062
-1.473118 -0.641994 6.659669 -0.384487 -0.962706 -0.212048
-1.349222 -0.710979 7.128263 -0.420209 -0.937154 -0.209183
-1.344144 -0.576596 7.692781 -0.464102 -0.927374 -0.209018
-1.274049 -0.297288 8.092289 -0.506146 -0.895090 -0.206170
-1.294477 -0.066071 8.234375 -0.525794 -0.869007 -0.202016
-1.312087 0.249315 8.512966 -0.540369 -0.857252 -0.195363
-1.313777 0.457595 8.750213 -0.549606 -0.857239 -0.190370
-1.268821 0.548574 9.013596 -0.557334 -0.844705 -0.183845
-1.227888 0.371156 9.333442 -0.554873 -0.852656 -0.184037
-1.212205 0.170841 9.718235 -0.551572 -0.865931 -0.186192
-1.161082 0.000414 9.988435 -0.543270 -0.861049 -0.185913
-1.123108 -0.054010 10.061914 -0.524351 -0.851293 -0.184763
-1.186050 0.027895 10.043616 -0.519774 -0.860282 -0.186173
-1.253545 0.201966 10.154584 -0.525740 -0.861184 -0.185542
-1.215288 0.350575 10.278236 -0.532577 -0.838961 -0.178776
-1.148380 0.528824 10.302907 -0.548831 -0.829491 -0.177275
-1.158923 0.644376 10.392782 -0.563465 -0.832843 -0.176459
-1.082174 0.673547 10.495811 -0.573150 -0.818532 -0.173664
-1.077638 0.534827 10.728063 -0.569266 -0.818736 -0.174564
-1.126866 0.341238 10.995962 -0.559217 -0.823402 -0.176130
-1.155089 0.157254 11.263480 -0.550794 -0.821919 -0.176386
-1.186141 0.119758 11.447687 -0.556298 -0.828075 -0.178987
-1.211728 0.086766 11.705363 -0.551856 -0.823555 -0.176653
-1.190248 0.155233 11.845115 -0.561902 -0.823460 -0.176967
-1.280340 0.300772 12.115402 -0.582654 -0.835416 -0.176941
-1.221143 0.345793 12.323809 -0.593284 -0.826128 -0.175855
-1.122117 0.469223 12.484719 -0.621444 -0.816879 -0.176098
-1.136462 0.527602 12.677376 -0.644761 -0.824813 -0.177586
-1.094265 0.403322 13.105114 -0.636679 -0.814207 -0.174359
-1.060126 0.180087 13.575020 -0.614431 -0.798335 -0.170976
-1.168939 0.183820 13.712683 -0.628631 -0.814667 -0.174556
-1.175488 0.175226 13.941044 -0.635517 -0.805082 -0.173463
-1.165222 0.001391 14.363327 -0.617304 -0.789143 -0.170192
-1.179698 -0.272845 14.837311 -0.589404 -0.784180 -0.169985
-1.328534 -0.162204 14.883817 -0.620036 -0.810094 -0.176215
-1.354547 0.083774 14.866475 -0.663948 -0.813568 -0.178521
-1.232844 0.062286 14.922059 -0.667432 -0.781197 -0.172266
-1.189110 -0.070973 15.159628 -0.651640 -0.775555 -0.171183
-1.468597 -0.202461 15.213377 -0.635459 -0.821126 -0.175011
-1.310887 -0.208189 15.028810 -0.636316 -0.790275 -0.170553
-1.394991 -0.257569 14.782108 -0.635921 -0.789614 -0.169902
-1.384024 -0.430032 14.661074 -0.617645 -0.775211 -0.168653
-1.606498 -0.755519 14.502329 -0.577737 -0.784889 -0.168226
-1.458275 -0.802030 14.297079 -0.570692 -0.741226 -0.161645
-1.487963 -0.750354 14.025526 -0.562304 -0.748783 -0.164977
-1.675516 -0.643058 13.648536 -0.555596 -0.780473 -0.167955
-1.653922 -0.491390 13.253755 -0.545114 -0.792360 -0.170774
-1.511441 -0.300268 12.877724 -0.547892 -0.783864 -0.167403
-1.397887 -0.136084 12.594646 -0.560511 -0.799742 -0.169061
-1.243751 -0.122474 12.390365 -0.562712 -0.801624 -0.164140
-1.194487 -0.144209 12.161780 -0.564722 -0.826169 -0.164511
-1.223946 -0.085140 11.881316 -0.574306 -0.845483 -0.161378
-1.090941 -0.066041 11.659984 -0.568683 -0.819268 -0.150467
-1.138133 -0.172425 11.542258 -0.544580 -0.822589 -0.143640
-1.247512 -0.268440 11.578381 -0.521388 -0.843209 -0.140989
-1.200876 -0.122668 11.486564 -0.531546 -0.833348 -0.132791
-0.988963 -0.049407 11.529536 -0.526953 -0.797655 -0.123490
-0.907748 0.053974 11.590885 -0.525539 -0.803968 -0.123375
-1.103342 0.060007 11.789982 -0.512394 -0.853465 -0.129046
-0.977628 0.161814 12.202103 -0.499676 -0.852198 -0.129602
-0.867710 0.378563 12.481134 -0.516773 -0.858572 -0.133712
-0.773066 0.518634 12.710290 -0.542461 -0.865738 -0.140162
-0.699428 0.491269 13.203180 -0.564820 -0.859509 -0.146746
-0.742717 0.281782 13.909418 -0.580572 -0.865391 -0.158176
-0.868481 0.215037 14.492674 -0.602097 -0.878310 -0.168962
-0.934362 0.214332 14.912527 -0.619097 -0.880722 -0.173821
-0.973551 0.183699 15.567753 -0.613079 -0.879160 -0.174377
-1.022544 0.304852 16.037209 -0.622100 -0.893509 -0.175143
-0.829681 0.462548 16.717002 -0.649314 -0.870863 -0.171409
-0.807065 0.422804 17.071155 -0.650464 -0.868041 -0.171005
-0.806666 0.289416 17.631919 -0.645929 -0.871082 -0.174344
-0.929672 0.264935 17.968743 -0.660081 -0.883671 -0.180057
-0.945152 0.361143 18.122618 -0.675903 -0.862179 -0.179410
-1.056990 0.285251 18.401319 -0.657652 -0.850834 -0.177978
-1.080049 0.089159 18.700012 -0.620522 -0.832654 -0.176344
-1.046794 -0.007916 18.991714 -0.598584 -0.806689 -0.172515
-1.179577 -0.054375 18.882003 -0.592667 -0.825415 -0.176712
-1.301380 -0.003558 18.638061 -0.606511 -0.839316 -0.179251
-1.187927 -0.240484 18.707501 -0.579665 -0.817631 -0.177962
-1.255675 -0.519316 18.693034 -0.553385 -0.819875 -0.177273
-1.482053 -0.454043 18.264519 -0.587611 -0.856948 -0.183181
-1.385601 -0.419973 17.848291 -0.604802 -0.836617 -0.180671
-1.311500 -0.467351 17.430857 -0.593005 -0.812450 -0.178780
-1.384124 -0.521201 17.163351 -0.549767 -0.808666 -0.178931
-1.558057 -0.298050 16.386799 -0.538988 -0.828381 -0.184426
-1.531511 0.004849 15.462037 -0.540827 -0.798526 -0.181886
-1.493495 0.113084 14.658862 -0.528210 -0.782015 -0.180400
-1.493591 -0.177082 14.209795 -0.482765 -0.773830 -0.177261
-1.498982 -0.443244 13.634524 -0.457060 -0.786741 -0.179410
-1.362148 -0.337626 12.671760 -0.477200 -0.776616 -0.172455
-1.256058 -0.188226 11.785560 -0.492977 -0.789185 -0.167901
-1.257344 -0.246483 11.257127 -0.468475 -0.793683 -0.159491
-1.192500 -0.202251 10.767163 -0.442033 -0.794304 -0.151484
-1.052106 -0.123223 10.386982 -0.431260 -0.784465 -0.146591
-1.170708 0.079762 9.845939 -0.452685 -0.812114 -0.147420
-0.940655 0.179454 9.429161 -0.469245 -0.787319 -0.144034
-0.877160 0.151622 9.361576 -0.460277 -0.782839 -0.141271
-1.055250 0.139816 9.237640 -0.457937 -0.817478 -0.144724
-1.019393 0.180305 9.203242 -0.450008 -0.811318 -0.142443
-1.042785 0.382902 9.074173 -0.456767 -0.809390 -0.142202
-1.018246 0.522384 9.098717 -0.454989 -0.804177 -0.140245
-1.010819 0.667295 9.220291 -0.454541 -0.804103 -0.137554
-0.977280 0.782437 9.288774 -0.468532 -0.797766 -0.133255
-0.941262 0.914578 9.413044 -0.499039 -0.797059 -0.132477
-0.970179 0.868213 9.701727 -0.518172 -0.808139 -0.133832
-1.020043 0.721312 10.109127 -0.527214 -0.821338 -0.135888
-1.075208 0.666468 10.401875 -0.529169 -0.838308 -0.138716
-1.027605 0.712743 10.511723 -0.535376 -0.839317 -0.139994
-0.964491 0.813148 10.681791 -0.542962 -0.834337 -0.139569
-0.926206 0.814625 10.818317 -0.536495 -0.830500 -0.138582
-0.935585 0.741479 11.030938 -0.523972 -0.832698 -0.138000
-0.948134 0.699273 11.050033 -0.522524 -0.839835 -0.139207
-1.010988 0.734286 11.156178 -0.533214 -0.855156 -0.140941
-1.022221 0.630985 11.079915 -0.523179 -0.864554 -0.143135
-1.030882 0.529364 11.023549 -0.516083 -0.886023 -0.148599
-1.043863 0.497276 10.999004 -0.514911 -0.891884 -0.149642
-1.063746 0.483536 10.925125 -0.518970 -0.901027 -0.151403
-1.087148 0.442150 10.839787 -0.519039 -0.908166 -0.152638
-1.158387 0.351877 10.858025 -0.509527 -0.917030 -0.153276
-1.187167 0.255621 10.948236 -0.496233 -0.914220 -0.151893
-1.191893 0.187750 11.026928 -0.486772 -0.912876 -0.152417
-1.206313 0.228141 11.115601 -0.492003 -0.915748 -0.154934
-1.217681 0.279118 11.132421 -0.499551 -0.925743 -0.160239
-1.218910 0.272669 11.266916 -0.495414 -0.926697 -0.163209
-1.254091 0.251284 11.581551 -0.480941 -0.931383 -0.166008
-1.290905 0.259479 11.860651 -0.471131 -0.939369 -0.169925
-1.322394 0.330740 12.076746 -0.473320 -0.945698 -0.172763
-1.247351 0.387479 12.420110 -0.482074 -0.939541 -0.174239
-1.300999 0.332681 12.814911 -0.488391 -0.949436 -0.175780
-1.340029 0.288333 13.260850 -0.512335 -0.957798 -0.176861
-1.264937 0.156585 13.854970 -0.519434 -0.949401 -0.175476
-1.232763 0.002276 14.671754 -0.522408 -0.950577 -0.174560
-1.231414 -0.016982 15.230785 -0.531742 -0.964322 -0.175416
-1.156772 0.079819 15.789885 -0.548597 -0.961215 -0.171257
-1.087588 0.095051 16.248318 -0.560466 -0.953215 -0.168326
-1.068474 -0.041575 17.024527 -0.563260 -0.950858 -0.171934
-1.092536 -0.217290 17.571338 -0.575418 -0.969097 -0.186668
-1.082565 -0.193936 17.982613 -0.596169 -0.978957 -0.197131
-1.055312 -0.361405 18.117932 -0.583666 -0.984847 -0.200295
-1.028012 -0.399578 18.159325 -0.587453 -0.995628 -0.199666
-1.060089 -0.466423 18.106305 -0.595576 -1.000221 -0.196638
-1.079661 -0.430101 17.867073 -0.621084 -0.988082 -0.191673
-1.102646 -0.612226 17.660963 -0.612671 -0.969020 -0.187346
-1.268833 -0.782468 17.579931 -0.577657 -0.963212 -0.185845
-1.286324 -0.823768 17.208363 -0.542311 -0.946569 -0.186130
-1.265490 -0.591937 16.442262 -0.531881 -0.921871 -0.185977
-1.322667 -0.382384 15.786827 -0.518902 -0.917506 -0.186866
-1.271114 -0.422979 15.274091 -0.488840 -0.906151 -0.187482
-1.286223 -0.573963 14.908178 -0.469851 -0.905805 -0.189053
-1.280108 -0.645399 14.424162 -0.473613 -0.902326 -0.189217
-1.281814 -0.655239 13.873426 -0.482564 -0.903004 -0.191053
-1.285580 -0.509209 13.247663 -0.498393 -0.902066 -0.193051
-1.266150 -0.351094 12.661954 -0.500721 -0.891510 -0.193137
-1.223899 -0.168310 12.212795 -0.499893 -0.881445 -0.193300
-1.182753 -0.040371 11.690144 -0.503956 -0.876100 -0.194852
-1.202034 0.079006 11.535367 -0.508761 -0.894154 -0.199857
-1.220863 0.029837 11.364418 -0.499708 -0.905240 -0.202203
-1.128035 -0.008564 11.288035 -0.478455 -0.898901 -0.200498
-1.078731 0.083208 11.223883 -0.479159 -0.899426 -0.201869
-1.005448 0.459116 11.163833 -0.486626 -0.898878 -0.205804
-0.983394 0.502873 11.274300 -0.483241 -0.892161 -0.205274
-0.991571 0.527873 11.374489 -0.483518 -0.894332 -0.207449
-1.093629 0.771566 11.537819 -0.532912 -0.910586 -0.215833
-1.143858 0.913310 11.952048 -0.591914 -0.898852 -0.222098
-1.228832 0.874134 12.690966 -0.611419 -0.889261 -0.226876
-1.414840 0.782611 13.432030 -0.613667 -0.894073 -0.231437
-1.456318 0.856571 14.196279 -0.627160 -0.898152 -0.239356
-1.436875 1.017572 15.182398 -0.638500 -0.897271 -0.240174
-1.418512 1.038977 16.346176 -0.646650 -0.943870 -0.248224
-1.355356 0.744676 17.704655 -0.626122 -0.998641 -0.253495
-1.170548 0.435116 19.154707 -0.624811 -1.064806 -0.263595
-1.024921 0.449765 20.655459 -0.675952 -1.132489 -0.274492
-0.949943 0.226718 22.295861 -0.675293 -1.179400 -0.281141
-0.971750 -0.210899 24.215883 -0.634005 -1.198561 -0.277281
-1.016158 -0.241176 25.618432 -0.646495 -1.242401 -0.283323
-0.851257 0.405206 26.543877 -0.746775 -1.240683 -0.283897
-0.764445 0.498405 28.016809 -0.769398 -1.221346 -0.279208
-0.767532 -0.255959 30.540469 -0.680794 -1.177420 -0.262182
-0.854004 -0.091218 31.347351 -0.741561 -1.192625 -0.265635
-1.051124 0.079937 32.779243 -0.786317 -1.134384 -0.244102
-0.716473 -0.670251 34.792229 -0.701739 -1.018650 -0.220046
-1.216572 -0.607212 35.097052 -0.749787 -1.100984 -0.234547
-0.902990 -0.231918 36.090209 -0.794712 -0.973340 -0.208053
-1.019522 -0.713742 36.733517 -0.743903 -0.917782 -0.196789
-0.890151 -1.543028 38.014171 -0.669701 -0.831672 -0.187601
-1.995738 -1.648965 37.510485 -0.752559 -0.943853 -0.208075
-2.028168 -1.494793 36.911179 -0.814292 -0.877764 -0.198456
-1.638622 -1.940720 37.520155 -0.731599 -0.752660 -0.185422
-1.966566 -2.416596 37.401403 -0.609814 -0.740081 -0.174071
-1.904981 -2.055627 36.621528 -0.600411 -0.723457 -0.175586
-2.171340 -1.957095 35.713646 -0.594799 -0.701748 -0.167347
-2.195552 -2.438952 35.429388 -0.547515 -0.646390 -0.158497
-2.732701 -2.980077 35.172860 -0.516662 -0.734787 -0.178801
-2.758796 -3.275544 34.853110 -0.490351 -0.687450 -0.169792
-2.706343 -3.216985 34.481507 -0.485629 -0.651130 -0.165164
-2.475996 -2.866748 33.921407 -0.496926 -0.602178 -0.154069
-2.659403 -2.445933 33.393121 -0.529165 -0.667926 -0.155023
-2.925300 -2.264620 33.197908 -0.527782 -0.725097 -0.145628
-2.633746 -2.210569 33.025074 -0.505455 -0.682905 -0.120417
-2.485997 -2.074685 32.913954 -0.500953 -0.698819 -0.110918
-1.865048 -1.559249 31.939038 -0.558600 -0.654766 -0.095902
-2.444161 -1.451196 31.223548 -0.545836 -0.787238 -0.107553
-1.866700 -1.575266 31.026446 -0.505369 -0.667854 -0.084165
-1.992598 -1.496572 30.348487 -0.502864 -0.717804 -0.094229
-1.817874 -1.287988 29.130666 -0.526154 -0.702755 -0.085950
-2.335161 -1.188551 27.968467 -0.544149 -0.823134 -0.098188
-1.662994 -0.850006 26.601738 -0.555920 -0.723030 -0.071065
-1.546402 -0.557135 25.227738 -0.536379 -0.752869 -0.061373
-0.911677 0.327238 23.074318 -0.581526 -0.739804 -0.052182
-0.834281 0.564446 21.819179 -0.524486 -0.768080 -0.040140
-0.462033 0.266912 20.833590 -0.405807 -0.736393 -0.027905
-0.701971 0.651772 18.865077 -0.429340 -0.834592 -0.049387
-0.362670 1.238625 16.297410 -0.490730 -0.828332 -0.061565
-0.423382 1.075847 15.388007 -0.411868 -0.783481 -0.046805
-0.177891 0.287482 15.343987 -0.230578 -0.722035 -0.039795
-0.937722 0.381427 13.907571 -0.180455 -0.815427 -0.049822
-0.112165 1.747810 11.510353 -0.306835 -0.680283 -0.036643
-0.172758 2.349858 10.228798 -0.322354 -0.670362 -0.024689
-0.237962 1.631841 10.490352 -0.173765 -0.694236 -0.018523
-0.177278 1.690078 9.664443 -0.163103 -0.694642 -0.011668
0.242069 2.508337 8.358160 -0.268324 -0.659984 -0.018226
0.252043 3.065246 7.493662 -0.321483 -0.671160 -0.027614
0.213216 2.636487 7.607081 -0.224908 -0.692646 -0.036947
0.101230 2.122742 7.965560 -0.107626 -0.711441 -0.040154
0.221172 2.169193 7.928954 -0.073242 -0.695495 -0.040980
0.027231 2.913003 7.065953 -0.163567 -0.754222 -0.054713
0.041489 3.276869 6.886985 -0.206465 -0.767717 -0.059446
-0.119128 2.717404 7.660650 -0.142416 -0.794001 -0.061601
-0.174003 2.131284 8.725086 -0.092018 -0.824214 -0.074767
-0.176117 2.466299 9.072504 -0.170441 -0.854005 -0.093825
-0.262116 3.091936 8.917580 -0.282230 -0.898441 -0.116804
-0.243382 3.237030 9.529946 -0.297679 -0.916231 -0.130427
-0.530960 2.772174 10.641674 -0.220816 -0.985455 -0.147598
-0.699744 2.479743 12.149210 -0.167952 -1.001187 -0.150431
-0.670669 2.545224 12.781777 -0.200717 -1.030328 -0.166565
-0.907730 2.498353 13.288552 -0.244391 -1.103614 -0.185515
-1.141805 1.883542 14.521752 -0.200016 -1.172618 -0.198876
-1.197830 1.318243 15.948088 -0.142236 -1.194595 -0.199715
-1.127774 1.188531 16.826965 -0.145155 -1.220071 -0.205319
-1.234066 1.256361 17.559257 -0.176368 -1.285178 -0.216659
-1.626777 1.132801 18.440158 -0.194017 -1.390642 -0.229048
-1.423101 0.815470 19.865316 -0.201674 -1.392286 -0.229906
-1.449852 0.870464 20.153407 -0.273206 -1.443758 -0.245826
-1.470071 0.984755 20.846151 -0.354262 -1.479923 -0.260194
-1.522818 0.334547 22.153100 -0.304189 -1.489194 -0.263516
-1.764927 -0.558179 23.936890 -0.238467 -1.520502 -0.267200
-1.706922 -0.704808 24.324282 -0.254046 -1.529146 -0.270412
-2.014405 -0.362035 24.140355 -0.376206 -1.602481 -0.281519
-1.875104 -0.518512 24.986003 -0.399540 -1.568472 -0.271202
-1.962918 -1.418102 26.499763 -0.318441 -1.564056 -0.265507
-1.985123 -2.080849 27.799688 -0.270566 -1.528833 -0.257067
-2.243486 -1.948341 27.986048 -0.348950 -1.574335 -0.271616
-2.404594 -1.361915 27.818230 -0.469576 -1.586576 -0.278471
-2.261163 -1.217395 28.237109 -0.487539 -1.528742 -0.270041
-2.250171 -2.086290 29.338300 -0.357348 -1.493806 -0.261930
-2.471399 -2.408531 29.939423 -0.325713 -1.529020 -0.269378
-2.400694 -2.253401 29.835985 -0.383098 -1.490710 -0.264267
-2.345853 -2.186323 29.529574 -0.433940 -1.449418 -0.258784
-2.348489 -2.599510 29.706759 -0.400340 -1.435227 -0.259856
-2.461300 -3.079461 30.230024 -0.325276 -1.400978 -0.248655
-2.248236 -3.088680 30.398901 -0.314851 -1.327677 -0.239077
-2.209771 -2.640603 29.882807 -0.386115 -1.301915 -0.241422
-2.129671 -2.380032 29.676002 -0.431029 -1.272769 -0.240248
-2.206994 -2.615892 29.982988 -0.399725 -1.248909 -0.231433
-2.041940 -2.619473 30.291292 -0.392862 -1.210492 -0.223803
-1.888793 -2.271518 29.840089 -0.447702 -1.185421 -0.221761
-1.681496 -1.926963 29.503243 -0.490612 -1.146230 -0.219088
-1.671795 -1.976343 29.545175 -0.468904 -1.132498 -0.219894
-1.823342 -2.049382 29.651788 -0.432071 -1.123338 -0.219351
-1.913383 -1.853887 29.316133 -0.442198 -1.119305 -0.222842
-1.889893 -1.362972 28.602800 -0.493062 -1.097770 -0.223461
-1.789399 -1.196436 28.290793 -0.490597 -1.053427 -0.211721
-1.725351 -1.186956 28.099596 -0.479317 -1.032539 -0.203450
-1.568944 -0.912884 27.442493 -0.507963 -1.012694 -0.198433
-1.488955 -0.560053 26.757019 -0.548050 -0.995208 -0.193908
-1.383377 -0.350530 26.179371 -0.560166 -0.975361 -0.189745
-1.408000 -0.192542 25.866009 -0.554600 -0.982018 -0.188872
-1.340904 -0.037597 25.516252 -0.534846 -0.972287 -0.184090
-1.282811 0.097456 25.311901 -0.522122 -0.972509 -0.182982
-1.237155 0.290486 25.239807 -0.525866 -0.977889 -0.183591
-1.182416 0.393860 25.362471 -0.540448 -0.976528 -0.184448
-1.249089 0.245135 25.664112 -0.546062 -1.015140 -0.197705
-1.288785 0.231020 26.286480 -0.564984 -1.037245 -0.206044
-1.221472 0.392318 26.944679 -0.589500 -1.041824 -0.211153
-1.199348 0.686620 27.464435 -0.616137 -1.056115 -0.217179
-1.219507 0.886716 27.961255 -0.629733 -1.070055 -0.221205
-1.124011 1.005526 28.423572 -0.642302 -1.068780 -0.225356
-1.089843 1.125198 28.846235 -0.675497 -1.072232 -0.230492
-1.107850 0.994197 29.281467 -0.684937 -1.096429 -0.237450
-1.143582 0.553888 29.956250 -0.637700 -1.112040 -0.236015
-1.108451 0.456337 30.165929 -0.624007 -1.117571 -0.234468
-1.028220 0.417907 30.419943 -0.614186 -1.126490 -0.232378
-1.080170 0.440079 30.550762 -0.612523 -1.150511 -0.232754
-1.090124 0.349469 30.765275 -0.592187 -1.154963 -0.231516
-1.151180 0.179181 31.206095 -0.555461 -1.141035 -0.227179
-1.205852 0.221851 31.343948 -0.555651 -1.127693 -0.226643
-1.274232 0.314730 31.326529 -0.567659 -1.118528 -0.227858
-1.371264 0.293327 31.300099 -0.566029 -1.106931 -0.225748
-1.398259 0.113166 31.486451 -0.547142 -1.091186 -0.222495
-1.476225 0.031454 31.610073 -0.545533 -1.083557 -0.220767
-1.513342 -0.069894 31.422317 -0.549178 -1.084750 -0.221177
-1.558212 -0.208923 31.380955 -0.547198 -1.087552 -0.222693
-1.600325 -0.343902 31.416569 -0.540255 -1.087616 -0.223287
-1.585776 -0.415258 31.370841 -0.539850 -1.087471 -0.225498
-1.596628 -0.465846 31.329523 -0.535485 -1.092387 -0.227504
-1.561284 -0.548114 31.248743 -0.518778 -1.091177 -0.227912
-1.562025 -0.452062 31.399423 -0.515865 -1.091838 -0.227819
-1.561127 -0.338038 31.473464 -0.519961 -1.095902 -0.228343
-1.561608 -0.309514 31.764185 -0.508991 -1.099986 -0.228091
-1.530105 -0.254970 32.139895 -0.494171 -1.104256 -0.228524
-1.497432 -0.120911 32.548135 -0.489917 -1.114196 -0.228955
-1.432955 -0.006601 32.877120 -0.496474 -1.117418 -0.228604
-1.364261 -0.011465 33.289595 -0.510186 -1.118483 -0.227593
-1.371191 -0.112869 33.815901 -0.532003 -1.115657 -0.226163
-1.419040 -0.415509 34.539988 -0.549367 -1.102484 -0.223593
-1.465029 -0.574026 34.994805 -0.572816 -1.091772 -0.224271
-1.568673 -0.585808 35.273228 -0.592238 -1.091793 -0.225603
-1.611001 -0.534339 35.557114 -0.604844 -1.079678 -0.225718
-1.566778 -0.542736 35.814305 -0.601604 -1.062665 -0.225441
-1.585662 -0.585675 36.112959 -0.592930 -1.045920 -0.222876
-1.625365 -0.698751 36.276700 -0.580588 -1.033225 -0.220182
-1.682485 -0.783841 36.443407 -0.575195 -1.017277 -0.216702
-1.731436 -0.851013 36.394916 -0.574319 -1.003436 -0.213545
-1.746251 -0.878784 36.184423 -0.583280 -0.978535 -0.209343
-1.701745 -0.771349 35.902536 -0.608536 -0.951963 -0.207759
-1.725817 -0.775131 35.686561 -0.610052 -0.937370 -0.208303
-1.762451 -0.770492 35.424360 -0.602474 -0.927744 -0.209077
-1.825045 -0.549210 34.815119 -0.611620 -0.931673 -0.213610
-1.819891 -0.341976 34.354432 -0.600532 -0.914396 -0.210127
-1.888495 -0.188267 33.776922 -0.591747 -0.923723 -0.210004
-1.850731 -0.097224 33.322128 -0.581038 -0.912436 -0.203112
-1.683014 -0.100148 32.886894 -0.572873 -0.888194 -0.195441
-1.616592 -0.179259 32.545286 -0.562238 -0.900735 -0.190801
-1.561322 -0.188460 32.506359 -0.559091 -0.899087 -0.189118
-1.483998 -0.295153 32.351079 -0.542474 -0.908312 -0.188757
-1.502604 -0.081107 32.273489 -0.562362 -0.940214 -0.192586
-1.374982 0.011941 32.343479 -0.548042 -0.945105 -0.191151
-1.185328 0.007406 32.775854 -0.504822 -0.931988 -0.185918
-1.156009 -0.040081 33.205067 -0.479041 -0.946059 -0.186635
-1.189679 0.078583 33.540836 -0.512502 -0.957582 -0.187340
-1.220864 0.076642 33.837858 -0.566019 -0.952900 -0.188191
-1.270206 -0.077212 34.348565 -0.595467 -0.951534 -0.187983
-1.261972 -0.321514 35.065583 -0.577801 -0.939998 -0.182939
-1.211144 -0.407868 35.420503 -0.564036 -0.935194 -0.179794
-1.126358 -0.159744 35.533321 -0.588785 -0.934454 -0.179241
-1.114957 -0.020544 35.494979 -0.602447 -0.939848 -0.180449
-1.128670 0.055684 35.380923 -0.608350 -0.937488 -0.180402
-1.183647 -0.120848 35.402540 -0.589324 -0.931872 -0.180966
-1.256935 -0.235506 35.244662 -0.590780 -0.920253 -0.182862
-1.393959 -0.112890 34.632731 -0.637553 -0.924682 -0.188883
-1.364180 -0.080615 34.300331 -0.646840 -0.897405 -0.189183
-1.500398 -0.136836 33.837639 -0.611080 -0.902843 -0.189671
-1.544356 -0.035531 33.570798 -0.594071 -0.914305 -0.191274
-1.512714 0.246042 32.985619 -0.576684 -0.922047 -0.191878
-1.453054 0.384671 32.486945 -0.567016 -0.909364 -0.188372
-1.441721 0.387637 32.016803 -0.562959 -0.928467 -0.193906
-1.500527 0.238539 31.627743 -0.555650 -0.939148 -0.195925
-1.322497 0.150596 31.100958 -0.553653 -0.913163 -0.194994
-1.260585 0.250455 30.645117 -0.568860 -0.917958 -0.199229
-1.273295 0.384987 30.230210 -0.573709 -0.931758 -0.201036
-1.180534 0.385760 29.788176 -0.556003 -0.928901 -0.199344
-1.185638 0.398799 29.692686 -0.540978 -0.943109 -0.200263
-1.182604 0.444170 29.487692 -0.541583 -0.949578 -0.200510
-1.145242 0.478300 29.245194 -0.545849 -0.946116 -0.200775
-1.096526 0.513202 29.141342 -0.546420 -0.936419 -0.200880
-1.159502 0.479006 29.147471 -0.536451 -0.940593 -0.203133
-1.204510 0.490146 29.159513 -0.531880 -0.946261 -0.208066
-1.243812 0.502574 29.253957 -0.527018 -0.956004 -0.213945
-1.288087 0.640245 29.134543 -0.542950 -0.981247 -0.224249
-1.317112 0.699999 29.248239 -0.540492 -0.993950 -0.228751
-1.262052 0.642728 29.616317 -0.516592 -0.992951 -0.230146
-1.357426 0.557082 29.940597 -0.502986 -1.002300 -0.232403
-1.456664 0.602836 30.280427 -0.523818 -1.020130 -0.240792
-1.540560 0.390557 30.873621 -0.528730 -1.020816 -0.245527
-1.574504 0.131681 31.962288 -0.546184 -1.031528 -0.250901
-1.601700 0.062928 32.628244 -0.564250 -1.052118 -0.253620
-1.536441 0.048378 33.624677 -0.589141 -1.074592 -0.252639
-1.384957 -0.077037 34.668209 -0.586328 -1.092186 -0.250072
-1.336785 -0.127443 35.525602 -0.599229 -1.133003 -0.250577
-1.301068 -0.199354 36.306809 -0.616831 -1.159960 -0.248502
-1.205363 -0.266266 36.889074 -0.647320 -1.177032 -0.249185
-1.149007 -0.378887 37.442762 -0.670717 -1.180289 -0.248229
-1.158052 -0.543586 37.864515 -0.667595 -1.179284 -0.247682
-1.113401 -0.681657 38.176599 -0.659157 -1.151357 -0.241891
-1.200201 -0.870545 38.237207 -0.647624 -1.118966 -0.231381
-1.281067 -0.966593 38.183304 -0.652818 -1.093841 -0.225316
-1.494765 -1.033178 37.750628 -0.667854 -1.078039 -0.219167
-1.493644 -0.998918 37.498404 -0.666237 -1.016414 -0.207502
-1.477258 -1.132430 37.158513 -0.619708 -0.975800 -0.202034
-1.534936 -0.937865 36.479111 -0.596519 -0.967102 -0.201511
-1.456254 -0.502351 35.427619 -0.593637 -0.939222 -0.197659
-1.454613 -0.463119 34.604546 -0.562665 -0.921310 -0.195670
-1.703911 -0.605193 33.576065 -0.533983 -0.943837 -0.198528
-1.727196 -0.667231 32.588418 -0.531701 -0.933755 -0.199586
-1.551553 -0.608183 31.525455 -0.529382 -0.895100 -0.194411
-1.511509 -0.492335 30.604950 -0.526945 -0.889321 -0.194515
-1.521930 -0.306729 29.780590 -0.521235 -0.901938 -0.197591
-1.464746 -0.048352 28.874034 -0.531347 -0.889818 -0.197590
-1.394688 0.176750 28.347337 -0.539013 -0.883006 -0.198672
-1.406845 0.219062 27.860385 -0.526907 -0.904732 -0.202819
-1.276612 0.337135 27.736807 -0.501412 -0.921570 -0.206333
-1.119175 0.395185 27.837983 -0.485174 -0.918252 -0.207490
-1.047367 0.432598 28.049927 -0.484233 -0.930638 -0.212618
-1.130715 0.529033 28.252252 -0.533961 -0.948406 -0.220885
-1.291697 0.556929 28.850310 -0.583592 -0.959342 -0.230302
-1.327962 0.435186 29.851930 -0.609201 -0.938296 -0.236875
-1.504417 0.439081 30.876232 -0.619448 -0.951775 -0.245867
-1.491741 0.710322 31.936467 -0.634166 -0.961113 -0.254054
-1.374734 1.054822 32.895975 -0.663476 -0.971060 -0.259021
-1.330802 1.124455 33.997993 -0.677662 -1.000920 -0.258900
-1.326850 0.773215 35.270147 -0.683421 -1.055826 -0.258894
-1.287758 0.372393 36.283068 -0.679307 -1.095093 -0.254929
-1.122949 -0.009285 37.168068 -0.660609 -1.124295 -0.250404
-1.127725 -0.130282 37.630015 -0.659042 -1.185146 -0.250394
-1.171601 -0.163418 37.966872 -0.656809 -1.226699 -0.253352
-1.023205 -0.304782 38.627542 -0.633954 -1.218215 -0.249394
-1.036722 -0.323658 39.156327 -0.630118 -1.215132 -0.246187
-1.136710 -0.212035 39.729811 -0.661191 -1.228669 -0.252085
-1.193782 -0.137265 39.860244 -0.674637 -1.227744 -0.252490
-1.103025 -0.327792 40.598519 -0.657965 -1.176537 -0.244769
-1.070148 -0.664040 41.446411 -0.627910 -1.140029 -0.237271
-1.235117 -0.747883 41.782318 -0.648723 -1.149803 -0.235280
-1.223387 -0.577572 41.846255 -0.702451 -1.128216 -0.228612
-1.061924 -0.592757 42.177861 -0.713201 -1.068079 -0.216363
-1.164291 -1.061163 42.969376 -0.648849 -1.036350 -0.205928
-1.293002 -1.331628 43.429139 -0.620880 -1.023791 -0.205113
-1.585242 -1.246445 43.399978 -0.654162 -1.018964 -0.207472
-1.432432 -1.015133 43.207717 -0.707905 -0.948993 -0.201865
-1.348792 -1.224439 43.293901 -0.699690 -0.906475 -0.196270
-1.566071 -1.570966 43.419374 -0.666101 -0.913294 -0.191861
-1.638123 -1.670675 43.443735 -0.644283 -0.913669 -0.190259
-1.649040 -1.463719 42.814051 -0.644855 -0.900639 -0.189150
-1.538307 -1.062714 41.977390 -0.635935 -0.854940 -0.183742
-1.570977 -1.036395 41.476554 -0.570426 -0.844611 -0.188084
-1.625564 -1.008072 40.684359 -0.533541 -0.802805 -0.187740
-1.904223 -0.779840 39.411825 -0.551207 -0.811244 -0.201196
-2.188728 -0.702848 38.254230 -0.555869 -0.794333 -0.197708
-2.125412 -0.704564 37.299921 -0.532133 -0.784885 -0.191075
-2.144031 -0.722329 36.242619 -0.490480 -0.826830 -0.184742
-1.978131 -0.399485 35.161928 -0.498967 -0.839049 -0.175352
-1.541321 0.093920 33.823031 -0.542252 -0.823313 -0.165824
-1.273888 0.247505 32.847930 -0.557502 -0.847199 -0.167067
-1.208271 0.170486 32.238973 -0.531706 -0.873528 -0.164398
-1.083366 0.044607 31.718308 -0.491649 -0.895549 -0.168195
-0.984431 0.338781 31.092115 -0.499363 -0.901700 -0.166549
-0.741356 0.723962 30.607141 -0.502474 -0.891490 -0.164375
-0.859463 0.875202 30.504405 -0.483817 -0.924501 -0.165214
-0.878687 0.895296 30.634987 -0.480950 -0.901215 -0.157925
-0.954559 0.938637 30.709104 -0.518919 -0.889423 -0.160781
-0.996386 1.091527 30.970756 -0.567503 -0.848338 -0.153188
-0.998412 1.191581 31.227332 -0.583825 -0.835626 -0.150936
-0.934328 1.395276 31.511355 -0.589344 -0.832503 -0.148675
-0.684362 1.642055 31.765276 -0.601937 -0.823438 -0.149249
-0.564392 1.754526 31.835473 -0.621875 -0.846403 -0.155171
-0.533283 1.688843 31.891279 -0.631794 -0.875574 -0.160365
-0.585077 1.490977 32.022412 -0.627687 -0.904879 -0.161812
-0.579882 1.177591 32.050990 -0.604397 -0.915172 -0.160597
-0.615558 1.007596 31.964988 -0.598277 -0.929171 -0.163130
-0.691828 0.948711 31.766552 -0.611494 -0.943313 -0.168509
-0.790532 0.882695 31.573514 -0.622505 -0.950908 -0.172587
-0.892261 0.738787 31.516510 -0.608740 -0.958160 -0.174706
-0.944842 0.681922 31.487649 -0.590084 -0.972957 -0.179091
-0.950759 0.723701 31.442924 -0.566343 -0.988114 -0.182762
-0.920349 0.798980 31.292332 -0.550312 -1.005266 -0.187341
-0.870721 0.828754 31.236816 -0.543178 -1.007321 -0.188875
-0.833721 0.656038 31.281737 -0.519593 -1.006234 -0.188718
-0.848207 0.374839 31.468200 -0.488215 -1.013370 -0.189454
-0.886235 0.319413 31.392745 -0.489092 -1.030061 -0.193507
-0.965020 0.337271 31.365153 -0.498220 -1.051187 -0.198038
-1.034099 0.217235 31.482227 -0.479343 -1.063681 -0.198621
-1.101721 0.127538 31.549729 -0.462079 -1.072763 -0.197636
-1.166623 0.162794 31.536636 -0.462767 -1.081235 -0.196172
-1.138638 0.234681 31.458684 -0.470927 -1.077540 -0.194062
-1.083376 0.230958 31.368718 -0.471629 -1.065452 -0.191063
-1.075277 0.162429 31.293008 -0.461418 -1.063396 -0.189559
-1.116099 0.085675 31.178193 -0.449912 -1.059811 -0.186396
-1.097971 0.069400 30.984506 -0.443129 -1.048063 -0.183208
-1.080154 0.020408 30.684004 -0.429381 -1.033280 -0.180133
-1.081229 0.002571 30.365742 -0.418882 -1.022427 -0.177922
-1.101891 -0.050895 29.905661 -0.405417 -1.009533 -0.175450
-1.124322 -0.110513 29.489227 -0.394513 -0.998576 -0.173845
-1.158000 -0.096183 28.946834 -0.396617 -0.990964 -0.173000
-1.176392 -0.113493 28.243073 -0.391492 -0.986287 -0.172382
-1.184702 -0.116091 27.577026 -0.377300 -0.983030 -0.170987
-1.159456 -0.020516 26.652641 -0.378633 -0.987115 -0.172796
-1.141190 0.183193 25.688485 -0.399160 -0.995938 -0.177821
-1.109114 0.045241 25.046642 -0.367115 -0.982421 -0.176953
-1.109925 -0.077864 24.262779 -0.345567 -0.974359 -0.178289
-1.149939 0.065189 23.287744 -0.355412 -0.975066 -0.181327
-1.085269 0.207342 22.386861 -0.345514 -0.950546 -0.180690
-1.037170 0.138035 21.819179 -0.300220 -0.910886 -0.174535
-1.158077 0.190615 21.180253 -0.269436 -0.911510 -0.175625
-1.207691 0.210212 20.588427 -0.249842 -0.923183 -0.181001
-1.071062 0.467794 19.771749 -0.281309 -0.906736 -0.181520
-1.058687 0.648169 19.362378 -0.299254 -0.931199 -0.187163
-1.001809 0.653038 19.105649 -0.278521 -0.953832 -0.189857
-0.806776 0.553721 19.130304 -0.238449 -0.942807 -0.188022
-0.883205 0.882180 18.828967 -0.254885 -1.001048 -0.200956
-0.949758 1.388622 18.456858 -0.289071 -1.044276 -0.208946
-0.876886 1.544091 18.349799 -0.289210 -1.049989 -0.210009
-0.879036 1.335353 18.643168 -0.260644 -1.065639 -0.212048
-1.009398 1.214107 18.746011 -0.276358 -1.093320 -0.217722
-1.000550 1.175062 18.814375 -0.309330 -1.082320 -0.218286
-0.964761 1.105468 18.884705 -0.321534 -1.070464 -0.218773
-1.100311 1.014736 18.935361 -0.315696 -1.099209 -0.222848
-0.991857 1.003675 19.079777 -0.317291 -1.104562 -0.223310
-0.990232 1.033015 19.018500 -0.328120 -1.112628 -0.223842
-0.936378 1.110972 18.742783 -0.357482 -1.124915 -0.226372
-0.983658 0.972949 18.644285 -0.363430 -1.142446 -0.228351
-1.042424 0.809920 18.700359 -0.350847 -1.147265 -0.227341
-1.098283 0.688204 18.310215 -0.332303 -1.156748 -0.229021
-1.129499 0.782502 17.910419 -0.322774 -1.161231 -0.228122
-1.108288 0.799672 17.246273 -0.283745 -1.160567 -0.224617
-1.166944 0.726167 16.766098 -0.243211 -1.176978 -0.222995
-1.237414 0.520211 16.168079 -0.201157 -1.188522 -0.219643
-1.205518 0.340690 15.489454 -0.183491 -1.190615 -0.218750
-1.213919 0.305106 14.537365 -0.188277 -1.199130 -0.220861
-1.204905 0.284853 13.676723 -0.185030 -1.187758 -0.217730
-1.164252 0.287194 12.719296 -0.166971 -1.168589 -0.213885
-1.130233 0.269010 12.048793 -0.138730 -1.135197 -0.205937
-1.200809 0.148388 11.339783 -0.105652 -1.123320 -0.203912
-1.256981 0.342580 10.257788 -0.125368 -1.129847 -0.208518
-1.373539 0.470053 9.341353 -0.143553 -1.120943 -0.208465
-1.335860 0.208754 8.824978 -0.105128 -1.091584 -0.203791
-1.405223 0.114376 8.073368 -0.089881 -1.106056 -0.206477
-1.414301 0.157187 7.517628 -0.079848 -1.115978 -0.204801
-1.309452 0.112328 7.175437 -0.053602 -1.103972 -0.196119
-1.210247 0.038773 6.822662 -0.036459 -1.129251 -0.198071
-1.243218 0.346008 5.963665 -0.083092 -1.185258 -0.204792
-1.035879 0.516560 5.526049 -0.104604 -1.177383 -0.201019
-0.869210 0.294591 5.463515 -0.075590 -1.177847 -0.204052
-0.955574 0.296419 4.976267 -0.075095 -1.222257 -0.212180
-0.982734 0.397318 4.732081 -0.071163 -1.228814 -0.211511
-1.040736 0.297619 4.599451 -0.034393 -1.229637 -0.207377
-1.085963 0.248485 4.494570 -0.005777 -1.240655 -0.208299
-1.177584 0.567605 3.680737 -0.034760 -1.263722 -0.212255
-1.066901 0.715907 3.409516 -0.047479 -1.244731 -0.210337
-0.979666 0.635044 3.318056 -0.029189 -1.232574 -0.212713
-1.016433 0.487152 3.164691 -0.006498 -1.254921 -0.222394
-1.130014 0.552175 2.815393 -0.014547 -1.278460 -0.229652
-1.043779 0.584431 2.629977 -0.011310 -1.272085 -0.229837
-1.161203 0.260892 2.685773 0.043726 -1.300668 -0.231708
-1.244119 0.311940 2.344919 0.043355 -1.334823 -0.236013
-1.138422 0.636435 1.747034 0.007660 -1.335739 -0.237897
-1.029712 0.652565 1.542337 0.018456 -1.312909 -0.233134
-1.058699 0.561355 1.443934 0.036450 -1.326890 -0.240221
-1.235845 0.544335 1.321463 0.045647 -1.337234 -0.246536
-1.347229 0.493907 1.151073 0.055355 -1.339088 -0.251417
-1.454302 0.456136 1.072023 0.066885 -1.349043 -0.256424
-1.657597 0.358516 1.062486 0.092953 -1.354632 -0.254229
-1.558174 0.572318 0.491667 0.063298 -1.348377 -0.257325
-1.579428 0.696490 0.240808 0.056950 -1.345252 -0.256483
-1.465417 0.524393 0.378681 0.091046 -1.319051 -0.251008
-1.533277 0.474619 0.243320 0.100031 -1.328031 -0.253458
-1.574789 0.649612 0.032151 0.078304 -1.321286 -0.255269
-1.673538 0.488155 0.131933 0.100554 -1.328261 -0.258337
-1.882563 0.334274 0.244733 0.119251 -1.357392 -0.265391
-1.839841 0.374314 0.162862 0.112534 -1.345867 -0.265584
-1.745587 0.483206 -0.093494 0.096402 -1.325559 -0.265445
-1.844187 0.459348 -0.173854 0.099009 -1.333327 -0.266337
-2.044573 0.369728 -0.052298 0.109433 -1.359353 -0.269643
-2.006877 0.351474 -0.008493 0.114001 -1.335075 -0.264946
-1.784637 0.346757 -0.118685 0.106807 -1.305668 -0.266293
-2.121439 0.474690 -0.216724 0.084599 -1.356544 -0.274441
-1.926493 0.563269 -0.225024 0.067992 -1.326763 -0.275161
-1.952336 0.482410 -0.268294 0.073539 -1.311906 -0.274460
-2.077398 0.268466 -0.050390 0.100824 -1.321347 -0.276074
-2.219005 0.157328 0.035822 0.109563 -1.349106 -0.282745
-2.181595 0.140504 -0.037968 0.111557 -1.321915 -0.275335
-2.125571 0.287035 -0.220051 0.087151 -1.323463 -0.279342
-2.275710 0.186238 -0.171240 0.101008 -1.345071 -0.280771
-2.144604 0.117551 -0.045867 0.112159 -1.326329 -0.280034
-2.041870 0.260400 -0.109815 0.092724 -1.307949 -0.282117
-2.142815 0.437436 -0.282575 0.064171 -1.332945 -0.292570
-2.235753 0.332664 -0.190345 0.077858 -1.338626 -0.293943
-2.229541 0.255440 -0.058039 0.088053 -1.326203 -0.291362
-2.125059 0.310688 -0.129032 0.076847 -1.313200 -0.290641
-2.281690 0.404493 -0.301579 0.061021 -1.335206 -0.292356
-2.186292 0.258664 -0.178846 0.080623 -1.318619 -0.289226
-2.175630 0.135556 -0.010855 0.098869 -1.314971 -0.288612
-2.141188 0.126332 -0.028807 0.100213 -1.311712 -0.290251
-2.213935 0.180591 -0.097503 0.092027 -1.332282 -0.299552
-2.226282 0.153307 -0.048873 0.096000 -1.331338 -0.304198
-2.190912 0.176488 -0.042086 0.092597 -1.320663 -0.306212
-2.239749 0.174107 -0.035587 0.090313 -1.329848 -0.309796
-2.322651 0.214832 -0.068646 0.078973 -1.340845 -0.310569
-2.234461 0.249409 -0.047205 0.067439 -1.322183 -0.304688
-2.200986 0.249407 -0.015642 0.059119 -1.315130 -0.300188
-2.215642 0.180903 0.066196 0.061537 -1.317280 -0.297521
-2.209157 0.105718 0.167375 0.064263 -1.315434 -0.295974
-2.208671 0.091356 0.219172 0.057582 -1.316087 -0.298380
-2.203330 0.088844 0.242101 0.049456 -1.313717 -0.302160
-2.272726 0.042777 0.245868 0.048168 -1.323879 -0.306978
-2.292571 0.011869 0.317790 0.049067 -1.325020 -0.308560
-2.277036 0.017756 0.339763 0.046422 -1.316204 -0.306696
-2.223637 0.059538 0.299000 0.040077 -1.302635 -0.303477
-2.234311 0.110146 0.227645 0.033716 -1.303984 -0.301002
-2.238494 0.135624 0.165401 0.034771 -1.299506 -0.296168
-2.214517 0.179962 0.116735 0.041202 -1.290315 -0.290557
-2.213707 0.186656 0.091356 0.046106 -1.291001 -0.290704
-2.229422 0.183292 0.020097 0.054245 -1.296819 -0.293559
-2.241369 0.190317 0.001377 0.063602 -1.300917 -0.296190
-2.233966 0.210750 -0.037790 0.073341 -1.301190 -0.297542
-2.234253 0.214342 -0.110924 0.080673 -1.304633 -0.298048
-2.275695 0.218974 -0.156218 0.086823 -1.314482 -0.298411
-2.283203 0.205598 -0.174902 0.091358 -1.313000 -0.294940
-2.267579 0.259823 -0.223026 0.087503 -1.307856 -0.291573
-2.267095 0.313302 -0.296573 0.082803 -1.311542 -0.290900
-2.261941 0.324486 -0.278853 0.084874 -1.304857 -0.288342
-2.251586 0.357179 -0.223634 0.084807 -1.298795 -0.285894
-2.263571 0.352629 -0.299520 0.084799 -1.301310 -0.286207
-2.249804 0.339766 -0.333147 0.090367 -1.296308 -0.284262
-2.257909 0.335591 -0.266427 0.096579 -1.293338 -0.283300
-2.265689 0.273180 -0.237257 0.106369 -1.293113 -0.282318
-2.232795 0.145491 -0.204176 0.122487 -1.281275 -0.279060
-2.256244 0.186087 -0.112617 0.120679 -1.287485 -0.279802
-2.293530 0.195572 -0.153171 0.118097 -1.299070 -0.281461
-2.271467 0.257925 -0.315614 0.106503 -1.301523 -0.282786
-2.233900 0.367427 -0.358449 0.089735 -1.296930 -0.282126
-2.292828 0.381894 -0.524754 0.078167 -1.309234 -0.283054
-2.248145 0.359190 -0.176133 0.089030 -1.285170 -0.275759
-2.285912 0.210799 -0.191142 0.104568 -1.296695 -0.277798
-2.337602 0.483429 -0.396764 0.066116 -1.302917 -0.277751
-2.276728 0.504436 -0.460831 0.061456 -1.285888 -0.273202
-2.271862 0.270913 -0.234440 0.094959 -1.275163 -0.269053
-2.320479 0.073717 -0.109187 0.122520 -1.278213 -0.267943
-2.274825 0.047804 -0.083715 0.126280 -1.263524 -0.264691
-2.261693 0.144803 -0.114766 0.115654 -1.256583 -0.264509
-2.270325 0.308493 -0.394483 0.087623 -1.260580 -0.268717
-2.237868 0.409521 -0.477291 0.077785 -1.248257 -0.266975
-2.251324 0.276822 -0.207042 0.096309 -1.241846 -0.263830
-2.283628 0.352335 -0.352569 0.085584 -1.246470 -0.262786
-2.251071 0.550036 -0.402024 0.062182 -1.231338 -0.258486
-2.272637 0.487228 -0.251265 0.078349 -1.229518 -0.255119
-2.294399 0.310876 -0.146205 0.098794 -1.231744 -0.254355
-2.336151 0.310257 -0.299233 0.098521 -1.241466 -0.254359
-2.241479 0.357891 -0.352031 0.090246 -1.221513 -0.250625
-2.240200 0.388476 -0.390982 0.091692 -1.218055 -0.248144
-2.236727 0.327637 -0.317936 0.101706 -1.218948 -0.246137
-2.270435 0.241193 -0.296714 0.114447 -1.216294 -0.241813
-2.210276 0.036616 0.219831 0.150915 -1.193023 -0.234122
-2.299955 0.242886 -0.241855 0.111980 -1.230896 -0.244491
-2.271481 0.641420 -0.602211 0.054992 -1.226353 -0.245536
-2.188698 0.604214 -0.573183 0.059817 -1.207787 -0.242029
-2.220362 0.453735 -0.477151 0.081125 -1.211801 -0.240120
-2.254661 0.385490 -0.324781 0.098555 -1.217954 -0.239039
-2.265071 0.178908 -0.005868 0.132251 -1.202194 -0.231628
-2.295990 0.021625 0.165409 0.156129 -1.209651 -0.232484
-2.340447 0.342804 -0.392869 0.101910 -1.233318 -0.241101
-2.229089 0.438727 -0.451196 0.087141 -1.214893 -0.240177
-2.205717 0.271497 -0.305747 0.110352 -1.213370 -0.239923
-2.227917 0.300752 -0.304441 0.104986 -1.218914 -0.240546
-2.197800 0.296056 -0.129968 0.113326 -1.203237 -0.235075
-2.212997 0.205410 0.064397 0.124163 -1.200299 -0.232574
-2.266449 0.339172 -0.184988 0.096602 -1.224794 -0.238932
-2.227310 0.619586 -0.419298 0.055798 -1.219829 -0.240485
-2.116942 0.648485 -0.370709 0.053219 -1.204609 -0.241410
-2.114922 0.384293 -0.163249 0.089518 -1.206431 -0.244187
-2.226119 0.443685 -0.129098 0.083292 -1.237549 -0.251605
-2.275428 0.464420 -0.038461 0.081616 -1.232667 -0.247958
-2.227490 0.361060 0.061541 0.096520 -1.225893 -0.245956
-2.301182 0.308741 0.104637 0.102012 -1.243300 -0.248333
-2.330136 0.567841 -0.189587 0.060314 -1.260488 -0.253265
-2.178314 0.627700 -0.137395 0.054988 -1.217235 -0.243647
-2.094709 0.597658 -0.143013 0.055914 -1.208522 -0.242566
-2.165841 0.636212 -0.115544 0.048378 -1.223107 -0.245570
-2.243784 0.757862 -0.129878 0.030100 -1.229699 -0.246594
-2.199025 0.813690 -0.084246 0.022306 -1.218263 -0.246167
-2.156627 0.774896 -0.017076 0.024828 -1.216310 -0.247857
-2.179437 0.815552 0.013610 0.018738 -1.217023 -0.248601
-2.127712 0.799847 0.016976 0.018106 -1.210466 -0.248282
-2.117197 0.756187 0.083450 0.021871 -1.209375 -0.247758
-2.169848 0.762886 0.041303 0.015841 -1.225131 -0.250070
-2.188486 0.801618 0.092033 0.006219 -1.227824 -0.249588
-2.165499 0.774802 0.140633 0.001974 -1.228352 -0.250484
-2.201315 0.863858 0.141649 -0.023126 -1.240612 -0.255061
-2.173249 1.033708 0.115230 -0.063207 -1.238057 -0.257434
-2.106467 1.130878 0.108041 -0.093425 -1.229785 -0.259140
-2.209147 1.029336 0.309952 -0.098582 -1.259953 -0.265860
-2.251555 1.038484 0.346418 -0.105882 -1.267250 -0.266515
-2.222711 1.062345 0.284578 -0.119182 -1.266511 -0.266196
-2.199028 1.031087 0.298815 -0.121989 -1.269471 -0.266694
-2.223374 0.917068 0.461854 -0.114556 -1.276485 -0.266507
-2.178055 0.787167 0.608732 -0.109999 -1.265201 -0.262875
-2.152030 0.778647 0.660130 -0.121032 -1.260957 -0.261632
-2.192981 0.796638 0.688027 -0.138430 -1.268101 -0.261850
-2.252009 0.759043 0.778103 -0.145330 -1.274747 -0.261694
-2.204321 0.744384 0.927368 -0.149357 -1.261105 -0.258569
-2.197973 0.720752 0.985917 -0.155768 -1.261323 -0.259584
-2.197235 0.689415 1.091195 -0.158472 -1.259873 -0.258891
-2.203105 0.747560 0.915084 -0.171021 -1.261195 -0.258049
-2.119397 0.725719 1.001392 -0.168321 -1.245147 -0.254889
-2.235868 0.580575 1.164133 -0.156267 -1.258586 -0.254547
-2.251737 0.468908 1.236844 -0.150928 -1.260961 -0.254164
-2.270981 0.523104 1.182129 -0.168944 -1.265756 -0.255024
-2.235661 0.493174 1.179327 -0.180522 -1.256119 -0.253413
-2.226705 0.419443 1.265530 -0.177526 -1.257396 -0.254128
-2.268879 0.297024 1.546816 -0.169378 -1.263117 -0.255490
-2.287032 0.281392 1.611233 -0.180910 -1.264900 -0.257346
-2.273416 0.350333 1.587167 -0.204020 -1.264630 -0.259970
-2.274959 0.451143 1.706454 -0.228965 -1.265938 -0.262351
-2.371126 0.388860 1.708378 -0.240580 -1.284474 -0.264947
-2.340910 0.327253 1.736742 -0.250483 -1.281981 -0.263362
-2.313941 0.314943 1.832149 -0.272853 -1.287882 -0.265714
-2.351887 0.149396 2.080886 -0.271020 -1.301360 -0.269088
-2.307121 0.029818 2.060286 -0.277334 -1.325889 -0.278541
-2.534634 0.404940 1.665040 -0.348389 -1.389275 -0.290931
-2.353883 0.409246 1.888743 -0.353377 -1.373847 -0.287181
-2.376706 -0.033065 2.159318 -0.303913 -1.395625 -0.289020
-2.592058 -0.258445 2.774026 -0.271478 -1.433948 -0.288220
-2.776008 0.004024 2.731285 -0.316858 -1.499370 -0.299194
-2.589983 0.665721 1.541011 -0.438030 -1.515740 -0.310595
-2.432794 0.851183 1.661232 -0.466264 -1.481792 -0.306236
-2.563140 0.018389 2.888164 -0.356166 -1.500728 -0.310860
-2.617194 -0.578521 3.513985 -0.291696 -1.539882 -0.325935
-2.827680 0.250242 1.881975 -0.448266 -1.608643 -0.345990
-2.522293 0.737889 1.955538 -0.508025 -1.542946 -0.331457
-2.824520 0.013812 2.433609 -0.415573 -1.634095 -0.346124
-2.703898 -0.147101 2.617277 -0.399258 -1.626451 -0.343441
-2.746686 -0.118649 3.224116 -0.389138 -1.644894 -0.347029
-2.554584 0.553111 2.595658 -0.507670 -1.698977 -0.370356
-2.612064 0.394815 4.120543 -0.494750 -1.702523 -0.372749
-2.693681 -0.078891 4.921337 -0.475408 -1.754220 -0.389383
-2.402414 -0.025737 8.247635 -0.424920 -1.697030 -0.369740
-2.469114 0.509209 9.728950 -0.513643 -1.864936 -0.413152
-2.547437 0.402359 12.660448 -0.494852 -1.821923 -0.395632
-2.172888 0.636131 13.951650 -0.600190 -1.908258 -0.439095
-2.554123 -0.483860 18.067651 -0.467989 -1.882614 -0.420339
-2.321617 -0.558628 19.626018 -0.528848 -1.913790 -0.446113
-2.614269 -0.436968 21.235224 -0.573166 -1.943220 -0.446108
-2.214685 -0.617875 22.638126 -0.574795 -1.881845 -0.435872
-2.554080 -1.468372 24.158335 -0.516856 -1.943024 -0.439793
-2.712474 -1.449734 24.322504 -0.559199 -1.991305 -0.448045
-2.425738 -1.817480 24.891701 -0.519420 -1.890728 -0.421213
-2.366272 -2.239783 24.275869 -0.471910 -1.865494 -0.415259
-2.533753 -2.561852 23.843505 -0.389177 -1.844724 -0.407071
-2.951614 -2.525531 23.054744 -0.376444 -1.822623 -0.395817
-2.778247 -2.768304 21.611435 -0.368688 -1.761808 -0.393854
-2.887903 -3.137128 21.009012 -0.344046 -1.693522 -0.381563
-3.261784 -3.825928 20.739254 -0.280860 -1.688334 -0.377718
-3.455004 -3.919159 20.407600 -0.276179 -1.665680 -0.370833
-3.424983 -3.871801 19.958029 -0.289394 -1.614680 -0.363980
-3.465407 -3.543161 19.670661 -0.342312 -1.557567 -0.352988
-3.512368 -3.320842 19.980850 -0.381041 -1.559277 -0.351353
-3.429019 -3.356997 20.994838 -0.361528 -1.546202 -0.344901
-3.238816 -3.242830 21.465013 -0.383603 -1.534637 -0.340959
-3.119563 -2.953458 22.044738 -0.444351 -1.546605 -0.338205
-3.093815 -2.720624 22.548453 -0.536773 -1.559960 -0.337945
-3.005068 -2.956480 23.439493 -0.566997 -1.526840 -0.330404
-3.111557 -3.409348 24.689694 -0.551501 -1.500595 -0.321954
-3.090313 -3.455318 25.601190 -0.558746 -1.442633 -0.310336
-3.145553 -2.866642 25.554140 -0.629023 -1.420318 -0.309507
-3.071334 -2.275666 25.621110 -0.669845 -1.378111 -0.301962
-2.863168 -1.995158 26.005566 -0.663481 -1.323317 -0.292739
-2.869368 -2.000981 26.227789 -0.655181 -1.326390 -0.290995
-2.727670 -1.810118 26.286484 -0.699251 -1.303742 -0.284983
-2.555215 -1.776172 26.177947 -0.723090 -1.270110 -0.274876
-2.356965 -1.749814 26.058755 -0.726152 -1.238461 -0.267148
-2.453534 -1.663381 25.933010 -0.717010 -1.241385 -0.264680
-2.336217 -1.447956 25.939974 -0.709257 -1.182717 -0.255215
-2.465488 -1.243623 25.858760 -0.699968 -1.183358 -0.260693
-2.488100 -0.942879 25.745630 -0.701673 -1.154864 -0.260462
-2.585291 -0.875861 25.760287 -0.695536 -1.150053 -0.259709
-2.619963 -0.776757 25.741130 -0.713223 -1.157762 -0.261357
-2.454716 -0.754173 25.942701 -0.720975 -1.135892 -0.255453
-2.293871 -0.852610 26.229020 -0.715350 -1.122894 -0.250551
-2.090609 -0.865429 26.637390 -0.700934 -1.104032 -0.243952
-1.995256 -0.657738 27.182362 -0.711635 -1.101460 -0.242119
-2.046616 -0.659720 27.572165 -0.700605 -1.103437 -0.240848
-1.982505 -0.576680 28.358597 -0.707118 -1.081504 -0.239844
-2.133366 -0.792587 29.400808 -0.674649 -1.074362 -0.237345
-2.098579 -0.812780 30.435166 -0.665338 -1.066672 -0.239049
-2.145603 -0.729327 31.155573 -0.675706 -1.071556 -0.240030
-1.985896 -0.465975 31.550393 -0.709099 -1.060017 -0.239978
-1.966730 -0.365493 32.301867 -0.718851 -1.078406 -0.241836
-2.009158 -0.453287 33.071397 -0.710800 -1.097958 -0.240910
-1.881176 -0.497802 33.269210 -0.710492 -1.085794 -0.240286
-1.966360 -0.461065 33.337164 -0.712963 -1.085239 -0.240760
-2.207852 -0.596664 33.149915 -0.696995 -1.069887 -0.241118
-2.227921 -0.757196 32.903495 -0.685052 -1.019713 -0.240088
-2.548301 -0.856311 32.434421 -0.685709 -0.978570 -0.238391
-2.753748 -0.919541 32.018158 -0.659198 -0.944520 -0.232710
-2.652586 -0.999720 31.466451 -0.604752 -0.895676 -0.227679
-2.807149 -0.622591 30.417215 -0.582821 -0.887052 -0.221502
-2.734268 -0.231250 29.195707 -0.581022 -0.880561 -0.221189
-2.835835 -0.250847 28.504813 -0.551990 -0.892527 -0.223139
-2.859197 -0.610215 27.997224 -0.508492 -0.878913 -0.221940
-2.898009 -0.699238 27.103228 -0.520792 -0.882208 -0.227539
-2.860282 -0.537830 26.315881 -0.544094 -0.878973 -0.227766
-2.635322 -0.469655 25.827518 -0.524535 -0.845969 -0.216209
-2.609866 -0.455417 25.589193 -0.492637 -0.866838 -0.210865
-2.406593 -0.234174 25.629765 -0.478048 -0.870235 -0.198571
-2.243810 -0.149125 25.477214 -0.468623 -0.889656 -0.192978
-2.100969 -0.100314 26.121612 -0.449166 -0.899762 -0.181447
-2.030963 -0.260638 26.579198 -0.453269 -0.917530 -0.175955
-1.871861 -0.236904 27.270986 -0.505519 -0.899150 -0.168245
-1.819696 -0.464460 28.323363 -0.540674 -0.877074 -0.163473
-1.937765 -0.563794 29.643816 -0.563945 -0.883859 -0.162188
-1.923237 -0.518008 30.827626 -0.592438 -0.894954 -0.166536
-1.893786 -0.221163 31.881694 -0.638874 -0.921109 -0.173638
-1.707747 -0.330188 33.649158 -0.636057 -0.922630 -0.172462
-1.647031 -0.248300 34.650572 -0.698534 -0.991215 -0.191874
-1.570414 -0.172468 35.545256 -0.766205 -1.023713 -0.203209
-1.451640 -0.508470 36.856624 -0.764436 -1.026576 -0.206677
-1.368489 -0.992331 38.666800 -0.725937 -1.025645 -0.209868
-1.565780 -1.027895 39.467985 -0.742547 -1.069812 -0.219638
-1.723441 -0.820650 40.120730 -0.785271 -1.096056 -0.226132
-1.788769 -0.503040 40.512141 -0.852779 -1.097291 -0.229280
-1.735168 -0.727101 41.725035 -0.837610 -1.047351 -0.222829
-1.809438 -1.262580 43.305870 -0.795124 -1.018067 -0.218334
-2.102755 -1.765767 44.548708 -0.770115 -1.037801 -0.222564
-2.048657 -1.443523 44.661236 -0.856084 -1.019311 -0.225416
-1.937105 -1.167838 45.043990 -0.909890 -0.949834 -0.216436
-2.110329 -1.596883 45.938010 -0.863881 -0.940060 -0.216953
-2.372036 -2.590245 47.756127 -0.740575 -0.899096 -0.204224
-2.466275 -2.719727 47.915078 -0.779942 -0.882455 -0.208897
-2.601229 -2.197179 47.610404 -0.910885 -0.853434 -0.214325
-2.827255 -2.285349 47.902332 -0.933568 -0.798936 -0.210255
-2.972747 -3.207104 49.182086 -0.799098 -0.733623 -0.198738
-3.432761 -3.462372 49.845210 -0.730599 -0.748585 -0.202507
-3.163732 -3.076019 49.485614 -0.761194 -0.684963 -0.199770
-3.484904 -2.607528 48.632397 -0.818003 -0.718533 -0.214072
-3.344582 -2.699966 48.194425 -0.790110 -0.636145 -0.204150
-4.001347 -3.160345 47.887566 -0.727651 -0.696977 -0.213877
-3.672882 -3.161524 47.087073 -0.712216 -0.564116 -0.187684
-3.669533 -2.973151 45.458172 -0.725652 -0.531860 -0.180814
-4.134132 -2.718748 43.985934 -0.719179 -0.563700 -0.173063
-4.093744 -2.719700 42.322007 -0.660641 -0.508947 -0.158082
-4.123113 -2.597047 40.475729 -0.612529 -0.490398 -0.152290
-3.357789 -2.238027 38.181477 -0.633092 -0.411680 -0.143798
-4.035578 -1.887476 35.900612 -0.664407 -0.588175 -0.164552
-3.031217 -1.959766 34.483245 -0.625675 -0.498734 -0.147500
-3.288050 -1.844712 32.633347 -0.611556 -0.613736 -0.156080
-2.479993 -1.552623 31.117736 -0.565669 -0.495008 -0.116768
-2.925790 -1.408091 29.288707 -0.520466 -0.624059 -0.128297
-2.545003 -0.625280 27.069532 -0.536816 -0.532407 -0.104756
-2.282201 0.148461 25.124364 -0.558776 -0.466128 -0.098171
-2.078519 0.124452 24.305611 -0.452777 -0.376902 -0.079707
-2.106840 -0.016072 23.218374 -0.369237 -0.426813 -0.089734
-2.066888 0.708153 21.198122 -0.409358 -0.460314 -0.085694
-1.612854 1.446831 19.603561 -0.460600 -0.439021 -0.069204
-0.702808 1.041145 19.044211 -0.330267 -0.352809 -0.038751
-0.886299 0.970438 17.759016 -0.283007 -0.486622 -0.047621
-0.484470 1.846005 15.994965 -0.361257 -0.489465 -0.043212
-0.027245 2.094459 15.380475 -0.318242 -0.404175 -0.017061
0.112736 1.773987 14.645907 -0.229595 -0.427753 -0.021780
-0.602779 2.359777 13.125077 -0.276830 -0.641115 -0.062060
-0.336709 2.725739 12.330917 -0.269078 -0.576740 -0.042900
-0.021133 2.191822 12.401010 -0.149630 -0.543486 -0.037363
-0.452912 2.300082 11.441051 -0.139485 -0.672244 -0.057361
-0.062562 2.933103 9.704788 -0.166684 -0.652604 -0.058477
0.162226 2.801642 9.914866 -0.127915 -0.620824 -0.056076
-0.036691 2.550141 10.088116 -0.075835 -0.696779 -0.076916
-0.464404 2.437896 9.842679 -0.041997 -0.822783 -0.106383
-0.455108 2.792391 9.185420 -0.075437 -0.841184 -0.115866
-0.548607 3.160392 8.788611 -0.103207 -0.888304 -0.131381
-0.651308 3.080298 8.886781 -0.066915 -0.932734 -0.141278
-0.716787 2.861423 9.197667 -0.009896 -0.974219 -0.150939
-0.934333 2.805922 9.366763 0.012290 -1.036245 -0.163873
-1.110271 2.774899 9.484967 0.003476 -1.105676 -0.187434
-1.397110 2.613022 9.742274 -0.001077 -1.164825 -0.208542
-1.583177 2.481576 9.990466 -0.029334 -1.210665 -0.231474
-1.905722 2.099965 10.534184 -0.018138 -1.253022 -0.246752
-2.112688 1.471376 11.745445 0.026377 -1.313197 -0.273096
-2.382536 1.608877 11.939567 -0.012316 -1.349971 -0.285426
-1.752017 1.926760 12.053550 -0.069796 -1.245656 -0.283516
-1.979349 1.729656 12.628225 -0.056788 -1.276236 -0.298784
-2.295800 1.190829 13.953548 0.000667 -1.306056 -0.306327
-2.217315 0.875747 14.850050 0.018590 -1.262966 -0.304135
-2.311952 0.749888 14.894572 -0.014191 -1.268648 -0.309952
-2.232269 0.461639 15.376172 -0.037463 -1.282738 -0.321172
-2.734263 0.123610 15.789385 -0.051496 -1.374309 -0.333011
-2.685396 -0.299953 16.715904 -0.045225 -1.344488 -0.324147
-2.508776 -0.836742 17.698341 -0.016733 -1.324461 -0.324688
-3.010560 -1.077614 18.327341 -0.031616 -1.399660 -0.333715
-3.175027 -1.002409 19.107029 -0.067061 -1.429201 -0.337444
-2.993368 -1.044659 19.727185 -0.088408 -1.401636 -0.334997
-2.923582 -0.977034 20.309135 -0.127538 -1.389544 -0.332874
-2.993873 -1.063254 21.248912 -0.135342 -1.405416 -0.336052
-2.924231 -1.771194 22.689043 -0.061487 -1.365980 -0.327702
-2.828965 -1.894579 23.246299 -0.098819 -1.356149 -0.331174
-2.919096 -2.057986 23.950044 -0.141109 -1.393817 -0.338202
-2.925285 -2.460757 24.440728 -0.153603 -1.409694 -0.333957
-2.870658 -2.512565 25.019567 -0.195780 -1.423838 -0.328336
-2.916970 -2.632220 25.412444 -0.204261 -1.455441 -0.325235
-2.747956 -2.957298 26.109123 -0.167694 -1.436070 -0.312856
-3.019780 -3.053458 26.439825 -0.174325 -1.507508 -0.319603
-3.080453 -2.810924 26.445920 -0.237214 -1.534230 -0.321265
-3.031675 -2.758342 26.383187 -0.280999 -1.528754 -0.321099
-3.082231 -3.163590 27.038019 -0.240265 -1.504291 -0.312775
-3.196154 -3.429498 27.837660 -0.212136 -1.497852 -0.309880
-3.255405 -3.326281 28.003165 -0.233118 -1.481193 -0.305776
-3.127574 -3.034048 28.044888 -0.271199 -1.437115 -0.297989
-3.037606 -2.876137 28.574854 -0.272009 -1.417058 -0.294162
-2.967394 -2.877702 29.081759 -0.254630 -1.402879 -0.290076
-2.874113 -2.747027 29.607778 -0.278377 -1.390561 -0.289099
-2.862347 -2.680232 30.135355 -0.327919 -1.391007 -0.292589
-2.982711 -2.767318 30.857957 -0.369369 -1.409134 -0.296597
-3.038400 -2.704898 31.635745 -0.425150 -1.415971 -0.299183
-2.994672 -2.603001 32.422181 -0.459701 -1.395917 -0.295200
-2.870560 -2.468476 33.569956 -0.469652 -1.354050 -0.288518
-2.908051 -2.183153 34.399750 -0.502920 -1.346909 -0.289786
-2.930653 -1.852780 35.072207 -0.559449 -1.329093 -0.289338
-2.823434 -1.801009 35.783076 -0.587351 -1.288483 -0.283853
-2.791206 -1.956133 36.565873 -0.586666 -1.270919 -0.279394
-2.631037 -2.029367 37.307165 -0.587923 -1.243806 -0.270968
-2.504129 -1.820216 37.386183 -0.619525 -1.223265 -0.263513
-2.189652 -1.629657 37.463213 -0.638751 -1.149063 -0.249610
-2.250991 -1.700582 37.591233 -0.626586 -1.147488 -0.248924
-2.405011 -1.853428 37.771122 -0.601669 -1.119620 -0.240164
-2.625951 -1.790913 37.623516 -0.613061 -1.112801 -0.240265
-2.720779 -1.682369 37.352348 -0.632729 -1.082314 -0.237898
-2.583222 -1.692643 37.244670 -0.624124 -1.031569 -0.229674
-2.615409 -1.709515 37.087162 -0.604304 -1.030427 -0.225350
-2.462844 -1.518705 36.858449 -0.600369 -1.030912 -0.222989
-2.412488 -1.389421 36.553872 -0.582005 -1.040060 -0.220157
-2.180526 -1.252989 36.287172 -0.569530 -0.993874 -0.207761
-2.436115 -1.095564 36.010467 -0.576203 -1.038007 -0.215904
-2.385800 -0.962898 35.729232 -0.579245 -1.003575 -0.212248
-2.274881 -0.907259 35.511343 -0.570430 -0.949739 -0.203895
-2.126406 -0.771664 35.380506 -0.575621 -0.929190 -0.201986
-2.167718 -0.703735 35.204203 -0.571539 -0.943621 -0.199754
-2.208906 -0.662082 35.087929 -0.562935 -0.970289 -0.199167
-2.151338 -0.579617 35.070870 -0.554922 -0.974457 -0.195334
-2.053145 -0.491413 35.118518 -0.542275 -0.975252 -0.190652
-1.931654 -0.469415 35.174472 -0.534706 -0.977549 -0.188457
-1.833206 -0.408729 35.323055 -0.550031 -0.974085 -0.188257
-1.821623 -0.522376 35.545132 -0.560357 -0.964214 -0.188322
-1.825637 -0.596096 35.953893 -0.571433 -0.956960 -0.190566
-1.957832 -0.591010 36.293889 -0.581052 -0.974325 -0.195328
-1.986839 -0.481037 36.568300 -0.586832 -0.988208 -0.197326
-1.953252 -0.425153 36.887028 -0.592325 -0.993531 -0.199182
-1.905238 -0.421567 37.243922 -0.606497 -0.997642 -0.202887
-1.841093 -0.502064 37.525917 -0.623156 -0.990244 -0.205369
-1.858756 -0.577433 37.800690 -0.631980 -0.992990 -0.207666
-1.913358 -0.652719 37.956684 -0.622986 -1.000462 -0.208302
-1.998747 -0.662159 38.133031 -0.612655 -1.008446 -0.207935
-2.042120 -0.627700 38.240724 -0.610274 -1.017192 -0.210885
-2.105767 -0.636665 38.413643 -0.605372 -1.025732 -0.214085
-2.119103 -0.660384 38.594771 -0.602408 -1.024771 -0.215929
-2.123487 -0.676802 38.852219 -0.605355 -1.027503 -0.219909
-2.170825 -0.607319 38.950018 -0.625404 -1.042808 -0.225815
-2.189243 -0.636863 39.309260 -0.635634 -1.051702 -0.228049
-2.173300 -0.612141 39.703647 -0.655612 -1.055413 -0.228753
-2.143615 -0.681894 40.233874 -0.661291 -1.059405 -0.228648
-2.110071 -0.740175 40.909093 -0.665829 -1.060721 -0.228426
-2.060592 -0.734043 41.587972 -0.681871 -1.057207 -0.229996
-2.055240 -0.665056 42.202073 -0.709877 -1.060916 -0.235135
-2.102842 -0.728735 43.045294 -0.723734 -1.057918 -0.236575
-2.148532 -0.829671 44.037455 -0.739057 -1.055792 -0.238612
-2.130268 -1.233690 45.520266 -0.699174 -1.036221 -0.234467
-2.221943 -1.121165 46.066808 -0.739404 -1.071180 -0.243206
-2.236069 -0.805953 46.223456 -0.800470 -1.086310 -0.247374
-2.137233 -0.727474 46.897628 -0.820948 -1.058903 -0.242735
-2.174611 -1.227940 48.178612 -0.766700 -1.027521 -0.237362
-2.474664 -1.388931 48.849727 -0.773164 -1.053124 -0.244826
-2.591152 -1.418486 49.192229 -0.786575 -1.023990 -0.239027
-2.466503 -1.527054 49.534643 -0.790481 -0.969409 -0.232183
-2.571488 -1.867695 50.105762 -0.768843 -0.967016 -0.229330
-2.568066 -2.046240 50.521308 -0.773786 -0.967727 -0.225644
-2.583387 -2.193760 51.053852 -0.769457 -0.941713 -0.215548
-2.359342 -2.373773 51.850625 -0.745095 -0.865227 -0.202107
-2.516411 -2.436809 52.288081 -0.739066 -0.865801 -0.203796
-2.900465 -2.284793 52.623963 -0.762263 -0.865997 -0.201971
-2.898328 -2.326872 53.299765 -0.756650 -0.816184 -0.196881
-2.940787 -2.250432 53.673101 -0.780876 -0.781893 -0.190752
-2.677696 -2.195551 54.060929 -0.810747 -0.749148 -0.189925
-2.971402 -2.215149 54.328973 -0.823049 -0.775751 -0.185617
-2.682683 -2.431580 54.969925 -0.803095 -0.726600 -0.179285
-3.249373 -2.574694 55.216504 -0.788092 -0.766695 -0.177804
-3.204152 -2.645996 55.317503 -0.783643 -0.718536 -0.174520
-2.962307 -2.560077 55.241532 -0.799791 -0.627003 -0.165393
-3.450726 -2.626709 55.168257 -0.791196 -0.648211 -0.164188
-3.174786 -2.666012 55.014156 -0.792866 -0.578127 -0.159386
-3.381454 -2.690582 54.531287 -0.799052 -0.575390 -0.160168
-3.525834 -2.435851 53.871255 -0.824326 -0.606858 -0.169825
-3.714216 -2.483192 53.398010 -0.766213 -0.629700 -0.168235
-2.884608 -2.246215 52.481434 -0.722251 -0.510078 -0.146291
-3.113450 -1.712042 51.153690 -0.728655 -0.571210 -0.144791
-3.073107 -1.258851 49.528828 -0.728740 -0.552087 -0.130378
-3.602326 -1.443577 48.263700 -0.669106 -0.610320 -0.130856
-2.995667 -1.305944 46.427587 -0.654845 -0.520606 -0.118789
-3.476141 -0.854677 44.233675 -0.685289 -0.661781 -0.139336
-2.743177 -0.431247 42.497140 -0.667482 -0.582432 -0.115482
-2.808441 -0.506072 40.671459 -0.594073 -0.649572 -0.107482
-1.814995 -0.208295 38.297457 -0.581860 -0.571415 -0.085612
-2.415170 0.186474 36.090866 -0.598007 -0.704660 -0.092382
-2.137725 0.500512 34.184915 -0.580502 -0.660706 -0.079707
-2.025208 0.614674 32.638880 -0.489077 -0.585744 -0.069041
-1.192345 0.650567 31.668872 -0.398855 -0.437882 -0.056861
-1.921941 1.110561 30.248730 -0.385942 -0.566434 -0.080782
-1.794583 1.980847 28.464639 -0.401973 -0.584244 -0.081740
-1.110850 2.459248 27.506462 -0.383864 -0.510331 -0.060872
-0.948831 2.405459 27.009365 -0.339581 -0.575112 -0.056466
-0.895005 2.168446 27.200976 -0.310805 -0.646945 -0.059693
-0.260032 2.121680 27.035340 -0.355171 -0.602013 -0.056602
0.064374 2.533105 26.688624 -0.434515 -0.611087 -0.074311
-0.421442 2.832362 26.679607 -0.464421 -0.739642 -0.106030
-0.496185 2.891960 27.546951 -0.408951 -0.739687 -0.108505
-0.580996 2.828913 28.535972 -0.349964 -0.769632 -0.118738
-0.500072 3.043415 29.047309 -0.376934 -0.789632 -0.128847
-0.627970 3.245261 29.252128 -0.447472 -0.882463 -0.154348
-0.490807 2.921941 30.387153 -0.435411 -0.881862 -0.152888
-0.473498 2.443395 31.287238 -0.378463 -0.926611 -0.162373
-0.490636 2.222483 31.829025 -0.341214 -0.956004 -0.167151
-0.641430 2.064321 32.197883 -0.319837 -1.019680 -0.179672
-1.024981 1.890722 32.903218 -0.305029 -1.101295 -0.192675
-1.089637 1.610563 33.185052 -0.297658 -1.144040 -0.202503
-1.209420 1.142104 33.702287 -0.282768 -1.186057 -0.210641
-1.467227 0.747374 34.132496 -0.282797 -1.252889 -0.223318
-1.692582 0.466990 34.496221 -0.279386 -1.300372 -0.231939
-1.819947 0.284769 34.587036 -0.261359 -1.335914 -0.238135
-2.024993 0.127239 34.922081 -0.221950 -1.391575 -0.248410
-2.324441 -0.193116 35.480262 -0.173254 -1.455176 -0.261645
-2.201321 -0.340171 35.713000 -0.189561 -1.455038 -0.275243
-2.317393 -0.543988 36.041014 -0.226392 -1.487238 -0.294562
-2.431633 -1.202873 37.159303 -0.199411 -1.495283 -0.302822
-2.672776 -1.675298 38.124110 -0.170780 -1.522959 -0.303903
-2.659958 -1.817827 38.909163 -0.187515 -1.520501 -0.304236
-2.632575 -1.358902 39.465207 -0.293910 -1.528251 -0.310217
-2.679292 -1.440123 40.364331 -0.299778 -1.528366 -0.307746
-2.874084 -2.013024 41.946065 -0.242947 -1.558901 -0.310119
-3.080712 -2.275612 42.902812 -0.258445 -1.600865 -0.318240
-3.216229 -2.458307 43.561658 -0.354731 -1.656194 -0.337899
-3.260488 -2.596324 43.799034 -0.360371 -1.666688 -0.337165
-3.115901 -2.820046 44.175394 -0.355195 -1.646083 -0.324977
-3.102751 -2.998190 44.353125 -0.323126 -1.616516 -0.306738
-3.096676 -3.105992 44.147515 -0.292837 -1.569189 -0.291770
-3.328643 -2.892495 43.346879 -0.312295 -1.547624 -0.285697
-3.309481 -2.731532 42.469018 -0.330921 -1.455199 -0.267868
-3.365080 -2.811878 41.889002 -0.323241 -1.408748 -0.259417
-3.520819 -2.989056 41.384922 -0.300893 -1.380013 -0.248652
-3.377861 -2.864676 40.759283 -0.318142 -1.324873 -0.237013
-3.091066 -2.536743 40.077286 -0.354638 -1.246281 -0.220688
-3.091963 -2.473360 39.692556 -0.350954 -1.245077 -0.217983
-3.092802 -2.436527 39.571416 -0.335208 -1.227494 -0.208163
-2.760191 -2.338233 39.197241 -0.340127 -1.177529 -0.196902
-2.503809 -2.017546 38.775528 -0.379532 -1.154329 -0.189690
-2.466525 -1.907065 38.026572 -0.396227 -1.188925 -0.191482
-2.284512 -1.936754 37.226514 -0.377128 -1.182694 -0.178976
-2.183674 -1.707089 36.317548 -0.394701 -1.179995 -0.174939
-2.116618 -1.290822 35.149685 -0.416463 -1.153768 -0.168515
-2.063119 -0.960689 33.679103 -0.402503 -1.103163 -0.164876
-2.169316 -0.607340 32.006323 -0.389978 -1.050845 -0.164094
-2.159432 -0.580434 30.707740 -0.320732 -0.950055 -0.153618
-2.123798 -0.530416 29.125863 -0.264749 -0.878252 -0.149729
-2.033914 0.548993 24.552342 -0.316024 -0.831226 -0.154912
-1.908627 0.572656 24.229327 -0.290247 -0.790625 -0.146008
-1.711508 -0.021508 23.873291 -0.155100 -0.730898 -0.132298
-1.755092 -0.159913 22.504983 -0.090617 -0.765585 -0.138413
-1.951856 0.255829 20.618811 -0.120788 -0.823736 -0.150666
-1.786212 0.955630 18.617138 -0.177253 -0.811750 -0.151993
-1.486707 0.853566 17.430236 -0.116386 -0.783635 -0.151781
-1.612559 1.160168 16.169047 -0.116090 -0.853760 -0.166210
-1.794347 1.243281 15.097939 -0.089026 -0.900840 -0.168779
-1.633118 0.952994 14.276166 -0.018765 -0.891797 -0.165118
-1.622619 1.236325 13.002863 -0.050066 -0.935761 -0.176606
-1.681978 1.843065 11.359068 -0.124925 -1.001265 -0.192831
-1.375913 1.351857 11.518858 -0.007788 -0.938368 -0.175938
-1.430357 0.780548 11.492868 0.096825 -1.013971 -0.195313
-1.583089 1.549135 10.352439 0.009174 -1.097087 -0.220187
-1.429911 2.394980 9.205775 -0.074550 -1.105426 -0.233469
-1.439846 2.177196 9.719956 0.019851 -1.124269 -0.239273
-1.609196 1.734636 10.317907 0.112268 -1.208802 -0.256452
-1.681699 2.012123 9.770833 0.076929 -1.265028 -0.265447
-1.369980 2.806970 9.009930 -0.063375 -1.287323 -0.278300
-1.835729 2.795853 8.867758 -0.116846 -1.428985 -0.306721
-1.712398 2.054579 9.697674 -0.055808 -1.418996 -0.303090
-1.748577 1.590022 10.289186 -0.021269 -1.437600 -0.307181
-1.911054 1.915495 10.090052 -0.083293 -1.494830 -0.319108
-1.886446 2.203705 10.217226 -0.118460 -1.518828 -0.327395
-1.792748 2.251386 10.388261 -0.113014 -1.499946 -0.323456
-1.414056 2.140417 10.953785 -0.093074 -1.420610 -0.308904
-1.536059 1.830770 11.623784 -0.074263 -1.454028 -0.314039
-1.989624 1.638899 12.248976 -0.078807 -1.513024 -0.317695
-1.919535 1.577929 12.546885 -0.118279 -1.492148 -0.319293
-1.647669 1.344486 13.006417 -0.108680 -1.396735 -0.304658
-1.737093 0.992734 13.757857 -0.085645 -1.412147 -0.312951
-2.308836 0.861731 14.432897 -0.082411 -1.497264 -0.328913
-1.561972 0.722512 14.818347 -0.086192 -1.331881 -0.309569
-2.235412 0.488938 15.238567 -0.098692 -1.442656 -0.338481
-2.810858 -0.088671 16.027187 -0.065907 -1.502558 -0.351010
-2.952494 -0.686419 16.580537 -0.042250 -1.447036 -0.344743
-2.464954 -0.772118 16.603358 -0.094661 -1.406119 -0.358115
-2.847687 -0.786404 16.537425 -0.091641 -1.464245 -0.365579
-2.154591 -0.924992 16.500641 -0.038850 -1.293867 -0.331452
-2.150733 -0.810870 16.303757 -0.031434 -1.312970 -0.342550
-2.979635 -1.013021 15.586867 -0.020007 -1.410451 -0.347667
-2.994647 -1.363073 15.243383 -0.005742 -1.378045 -0.337732
-2.704914 -1.815894 15.147418 0.014194 -1.288076 -0.319365
-2.856604 -1.992056 14.687024 0.004932 -1.304778 -0.319724
-2.835366 -2.183394 14.350218 0.025526 -1.294638 -0.315715
-2.824903 -2.213054 13.793969 0.044770 -1.264253 -0.303449
-2.964322 -1.957470 13.323707 0.025552 -1.260066 -0.296754
-3.203189 -1.708498 12.584856 -0.017148 -1.297757 -0.300511
-3.317179 -1.861588 12.452781 -0.017314 -1.294323 -0.293482
-3.181598 -2.028070 12.404973 -0.030902 -1.279328 -0.290859
-2.808888 -1.920838 12.093165 -0.079881 -1.233167 -0.285802
-2.616703 -1.749697 11.571568 -0.130981 -1.224044 -0.287334
-2.621549 -1.760865 11.374005 -0.135884 -1.236275 -0.292340
-2.945874 -1.845259 11.401952 -0.111426 -1.274054 -0.293350
-2.938857 -1.751857 11.215017 -0.111113 -1.267369 -0.289164
-2.981767 -1.367772 10.835701 -0.166521 -1.303069 -0.293908
-2.698574 -1.366919 10.718908 -0.174884 -1.285140 -0.289034
-2.579828 -1.352949 10.767828 -0.176172 -1.275980 -0.287745
-2.590501 -1.260244 10.699383 -0.189899 -1.308943 -0.292240
-2.707317 -1.067019 10.543555 -0.215325 -1.344786 -0.296199
-2.682003 -0.997035 10.420689 -0.215899 -1.345832 -0.294649
-2.693218 -0.807247 10.301082 -0.226019 -1.355939 -0.295347
-2.620151 -0.557607 10.200423 -0.239179 -1.342813 -0.291273
-2.402073 -0.343951 10.072719 -0.246460 -1.312850 -0.285588
-2.285408 -0.272560 9.987767 -0.249932 -1.303169 -0.283734
-2.267203 -0.198113 10.016329 -0.263945 -1.314226 -0.285251
-2.258789 -0.258407 10.039093 -0.271355 -1.324661 -0.286711
-2.344767 -0.336964 10.092861 -0.284479 -1.364227 -0.292557
-2.338811 -0.427263 10.199275 -0.281667 -1.379305 -0.292879
-2.247913 -0.402990 10.219875 -0.287362 -1.375673 -0.288926
-2.139944 -0.250942 10.115404 -0.304908 -1.378370 -0.289822
-2.207761 -0.151376 10.049070 -0.314251 -1.400334 -0.293418
-2.179942 -0.142934 10.082646 -0.309952 -1.386500 -0.290526
-2.266413 -0.139827 10.117644 -0.309262 -1.401005 -0.294366
-2.328046 -0.104749 10.012070 -0.316308 -1.405362 -0.296238
-2.313109 -0.081841 9.900750 -0.320919 -1.394471 -0.295696
-2.266770 -0.107785 9.912731 -0.315084 -1.382179 -0.294521
-2.241447 -0.136190 9.858667 -0.309083 -1.374422 -0.293768
-2.233379 -0.161363 9.819211 -0.303209 -1.364543 -0.292303
-2.278471 -0.229718 9.902184 -0.290018 -1.362638 -0.292425
-2.379656 -0.315846 10.056673 -0.276875 -1.373444 -0.296815
-2.452573 -0.334586 10.049691 -0.278003 -1.387236 -0.300783
-2.407066 -0.201018 10.063730 -0.298037 -1.389596 -0.304160
-2.321035 -0.265092 10.309318 -0.288087 -1.379287 -0.302878
-2.258287 -0.314051 10.577956 -0.287139 -1.393307 -0.308555
-2.359921 -0.292702 10.933790 -0.296779 -1.421529 -0.313780
-2.375911 -0.320026 11.356021 -0.302631 -1.425393 -0.316471
-2.412173 -0.373954 11.918471 -0.302723 -1.430588 -0.320753
-2.579695 -0.249267 12.498997 -0.327675 -1.452501 -0.329151
-2.537083 -0.263944 13.215678 -0.321801 -1.426670 -0.327618
-2.410739 -0.208205 13.970978 -0.329083 -1.401037 -0.329225
-2.420718 -0.276544 14.779450 -0.323147 -1.393464 -0.329520
-2.427782 -0.260527 15.632238 -0.328502 -1.396374 -0.330005
-2.602216 -0.427065 16.470228 -0.320497 -1.434357 -0.334804
-2.562591 -0.473414 17.136195 -0.324232 -1.428340 -0.331594
-2.439300 -0.476418 17.730217 -0.340241 -1.426231 -0.331972
-2.493271 -0.467454 18.174775 -0.358447 -1.448817 -0.334532
-2.370600 -0.620613 18.672149 -0.355974 -1.440351 -0.330817
-2.436321 -0.761382 19.443363 -0.351574 -1.460854 -0.331849
-2.543462 -0.918154 19.699139 -0.354774 -1.488434 -0.333637
-2.551166 -0.886230 19.878636 -0.381338 -1.503109 -0.333242
-2.589541 -1.014685 20.145553 -0.386036 -1.521474 -0.329847
-2.537110 -1.155042 20.376954 -0.378406 -1.516155 -0.324162
-2.495167 -1.395028 20.760657 -0.357746 -1.502883 -0.315931
-2.385622 -1.465058 20.923113 -0.359343 -1.490377 -0.311687
-2.416261 -1.522375 21.066354 -0.360187 -1.499162 -0.311587
-2.438653 -1.539689 21.228086 -0.360411 -1.498387 -0.311577
-2.487856 -1.578755 21.424422 -0.354077 -1.501542 -0.315523
-2.542176 -1.562472 21.591874 -0.354245 -1.498143 -0.318664
-2.546932 -1.538455 21.753997 -0.356887 -1.492256 -0.321946
-2.585343 -1.488636 21.866282 -0.364914 -1.494949 -0.323122
-2.625992 -1.433822 21.956246 -0.373482 -1.494277 -0.318290
-2.645082 -1.424352 22.041012 -0.375939 -1.492360 -0.313404
-2.739162 -1.460554 22.214925 -0.372524 -1.498414 -0.312704
-2.797701 -1.452569 22.275389 -0.375185 -1.500756 -0.312629
-2.819053 -1.421513 22.287615 -0.381006 -1.488262 -0.311276
-2.800861 -1.390831 22.296098 -0.386163 -1.472914 -0.310479
-2.765885 -1.317911 22.192574 -0.398569 -1.455682 -0.309953
-2.790594 -1.294594 22.165433 -0.400588 -1.440072 -0.309005
-2.821483 -1.324487 22.159281 -0.393968 -1.429457 -0.307290
-2.817680 -1.312422 22.005865 -0.394391 -1.414667 -0.305202
-2.845817 -1.242938 21.877348 -0.403220 -1.397511 -0.301315
-2.804763 -1.244221 21.728574 -0.405939 -1.385134 -0.298865
-2.780469 -1.194694 21.548671 -0.416841 -1.378832 -0.297268
-2.701312 -1.142768 21.356359 -0.424756 -1.375256 -0.297129
-2.690433 -1.140970 21.302199 -0.423453 -1.380769 -0.298245
-2.676901 -1.097770 21.166283 -0.431077 -1.396616 -0.301737
-2.659591 -0.982294 21.038808 -0.446857 -1.409383 -0.303476
-2.592042 -0.932179 21.032057 -0.449151 -1.407671 -0.302062
-2.519246 -0.896074 21.127154 -0.440353 -1.400022 -0.299600
-2.437278 -0.875145 21.087902 -0.430944 -1.393829 -0.298418
-2.355885 -0.667022 21.048724 -0.441490 -1.381257 -0.296910
-2.322254 -0.541983 21.073535 -0.444732 -1.376233 -0.296889
-2.340797 -0.551826 21.282802 -0.432865 -1.365345 -0.294347
-2.388175 -0.661656 21.491336 -0.421353 -1.356557 -0.293589
-2.467756 -0.659389 21.712935 -0.436894 -1.345677 -0.294623
-2.521261 -0.634290 21.845123 -0.449120 -1.336998 -0.294864
-2.491038 -0.579303 22.016425 -0.455050 -1.316515 -0.293761
-2.531290 -0.564414 22.214852 -0.444423 -1.316995 -0.293815
-2.494835 -0.507528 22.416062 -0.437078 -1.312702 -0.292293
-2.484777 -0.468810 22.556522 -0.438820 -1.326230 -0.292780
-2.446174 -0.456498 22.619189 -0.449291 -1.338576 -0.292280
-2.386506 -0.538253 22.730660 -0.452457 -1.346160 -0.289093
-2.322120 -0.636832 22.806861 -0.449458 -1.351239 -0.286089
-2.291831 -0.706499 22.828489 -0.443218 -1.352187 -0.282079
-2.247326 -0.704243 22.787141 -0.442021 -1.345029 -0.278543
-2.232714 -0.676793 22.684348 -0.444462 -1.339851 -0.277113
-2.169612 -0.667997 22.601749 -0.443331 -1.325938 -0.274272
-2.189835 -0.657292 22.507964 -0.443555 -1.326716 -0.272898
-2.236425 -0.711850 22.438265 -0.438797 -1.321766 -0.269785
-2.242556 -0.767553 22.327933 -0.436818 -1.318286 -0.269144
-2.235212 -0.741504 22.144149 -0.452281 -1.302708 -0.267286
-2.298395 -0.664396 21.877933 -0.473017 -1.302736 -0.268319
-2.355322 -0.671345 21.630553 -0.468732 -1.301748 -0.268468
-2.333215 -0.627842 21.347252 -0.453422 -1.291778 -0.267337
-2.328065 -0.494716 20.969158 -0.444401 -1.294153 -0.267292
-2.334650 -0.289460 20.467697 -0.447019 -1.304485 -0.268635
-2.332715 -0.208448 20.011240 -0.445486 -1.319470 -0.270543
-2.348562 -0.292596 19.650615 -0.432873 -1.333609 -0.272029
-2.311981 -0.357320 19.418794 -0.426350 -1.336774 -0.272326
-2.248553 -0.360002 19.086893 -0.428065 -1.334350 -0.272724
-2.201517 -0.372682 18.943683 -0.418207 -1.333676 -0.274767
-2.196431 -0.370113 18.940290 -0.409239 -1.336884 -0.279068
-2.236604 -0.173569 18.880974 -0.420183 -1.347272 -0.286449
-2.272938 0.109927 18.878703 -0.430506 -1.332586 -0.290145
-2.412682 0.148787 19.246629 -0.385100 -1.319321 -0.292090
-2.426255 0.134603 19.685683 -0.354106 -1.308166 -0.294817
-2.532291 0.192605 20.034883 -0.358046 -1.304350 -0.295222
-2.496469 0.288190 20.400049 -0.426829 -1.306654 -0.305663
-2.543640 0.149602 20.876265 -0.449344 -1.309714 -0.308336
-2.484932 -0.255905 21.836608 -0.441051 -1.299778 -0.306834
-2.436984 -0.694276 23.230829 -0.403552 -1.324513 -0.307904
-2.432858 -0.603027 23.761474 -0.417516 -1.352029 -0.308717
-2.294378 -0.329584 24.246147 -0.455385 -1.379132 -0.308218
-2.110650 -0.412295 25.053317 -0.463730 -1.387325 -0.303593
-2.184444 -0.753211 26.082604 -0.450641 -1.414754 -0.299565
-2.302404 -1.002325 26.712461 -0.462562 -1.454523 -0.304399
-2.087398 -1.034521 27.014663 -0.500040 -1.430639 -0.299121
-2.101537 -1.051808 27.082981 -0.528595 -1.439892 -0.296784
-2.073474 -1.199530 27.358900 -0.531475 -1.453289 -0.297181
-2.345709 -1.376871 27.305980 -0.538206 -1.480823 -0.300328
-2.339777 -1.473128 27.194430 -0.525711 -1.436031 -0.292937
-2.445563 -1.553173 26.932215 -0.490338 -1.415331 -0.291416
-2.679470 -1.461021 26.344565 -0.464509 -1.423881 -0.291997
-2.689306 -1.282795 25.706322 -0.441172 -1.402654 -0.289494
-2.622623 -1.349906 25.129471 -0.399311 -1.360429 -0.281948
-2.547833 -1.389093 24.529527 -0.385455 -1.336695 -0.279852
-2.735648 -1.446597 23.788040 -0.384967 -1.367799 -0.285635
-2.798142 -1.519809 23.211593 -0.378759 -1.361202 -0.283524
-2.834341 -1.432049 22.616401 -0.384359 -1.355864 -0.284398
-2.793379 -1.221432 21.951047 -0.390501 -1.327181 -0.279921
-2.668233 -1.006566 21.377828 -0.402063 -1.302700 -0.277708
-2.642643 -0.777643 20.984982 -0.417445 -1.307581 -0.278974
-2.559621 -0.712581 20.902815 -0.407495 -1.300709 -0.276734
-2.617496 -0.699714 20.745727 -0.391556 -1.315638 -0.277228
-2.570746 -0.659263 20.774940 -0.371844 -1.313836 -0.274408
-2.568532 -0.607867 20.886098 -0.361719 -1.324463 -0.274092
-2.432836 -0.570533 20.905937 -0.375326 -1.313574 -0.271057
-2.305638 -0.524182 21.060696 -0.408571 -1.308014 -0.272143
-2.256817 -0.599763 21.487560 -0.442783 -1.305621 -0.273827
-2.291602 -0.657375 22.064194 -0.462400 -1.307559 -0.275636
-2.311127 -0.610767 22.505412 -0.480754 -1.322143 -0.281947
-2.322021 -0.267995 22.903877 -0.522183 -1.335930 -0.287612
-2.226275 -0.021448 23.513685 -0.537122 -1.334303 -0.290307
-2.160724 -0.108458 24.384560 -0.518138 -1.336381 -0.293587
-2.187321 -0.179776 25.313093 -0.522219 -1.341114 -0.298311
-2.263775 -0.353893 26.128296 -0.527856 -1.350213 -0.305103
-2.328885 -0.452031 27.111878 -0.528405 -1.346176 -0.307353
-2.370771 -0.560320 27.836884 -0.513082 -1.356604 -0.312050
-2.377726 -0.474828 28.564307 -0.507285 -1.361884 -0.311933
-2.309945 -0.482240 29.162895 -0.499091 -1.366418 -0.311012
-2.300829 -0.457057 29.592033 -0.512003 -1.381314 -0.309657
-2.279141 -0.438014 29.970330 -0.541985 -1.403658 -0.306190
-2.300845 -0.578005 29.927335 -0.541113 -1.423735 -0.305726
-2.100973 -0.735063 29.829137 -0.546725 -1.408655 -0.299732
-2.138218 -0.848085 29.715869 -0.564699 -1.401249 -0.295955
-2.215924 -1.181743 29.311079 -0.550880 -1.396913 -0.297803
-2.467467 -1.269497 28.815691 -0.523175 -1.391891 -0.296980
-2.472712 -1.307080 27.993539 -0.468777 -1.356561 -0.291319
-2.547617 -1.051356 26.953402 -0.427168 -1.331308 -0.283427
-2.635817 -0.935492 25.635271 -0.399736 -1.327042 -0.281560
-2.532799 -0.929604 24.307109 -0.376833 -1.283541 -0.274201
-2.502151 -1.105817 23.309490 -0.361893 -1.255000 -0.265822
-2.400795 -1.244119 22.254013 -0.350328 -1.228968 -0.256680
-2.419510 -1.242868 20.986317 -0.336375 -1.243402 -0.253309
-2.368413 -0.926633 19.435574 -0.355270 -1.253701 -0.250144
-2.214983 -0.608668 18.116648 -0.370538 -1.233233 -0.243925
-2.077851 -0.496907 17.058212 -0.356221 -1.201293 -0.239870
-2.165422 -0.540599 16.244904 -0.335455 -1.193711 -0.244295
-2.257235 -0.560448 15.383396 -0.317764 -1.165797 -0.250035
-2.341629 -0.412911 14.460648 -0.302578 -1.122639 -0.255657
-2.435784 -0.446977 13.999357 -0.262453 -1.093892 -0.258963
-2.539629 -0.458291 13.197166 -0.218358 -1.077006 -0.258937
-2.608486 0.040985 12.198461 -0.245754 -1.071907 -0.251411
-2.401712 0.208276 11.668993 -0.234816 -1.045487 -0.235759
-2.084505 0.330119 11.181667 -0.232331 -1.019442 -0.225940
-1.798446 0.570211 10.862612 -0.252210 -1.017063 -0.232904
-1.694343 0.751855 10.552053 -0.253722 -1.042865 -0.240629
-1.692804 0.828288 10.501514 -0.234861 -1.068153 -0.242171
-1.659168 0.977098 10.260685 -0.231766 -1.092805 -0.246920
-1.605896 1.080634 10.007847 -0.232391 -1.104976 -0.244717
-1.597651 1.062412 10.059979 -0.232963 -1.120898 -0.241904
-1.646951 0.963927 10.125373 -0.238308 -1.149303 -0.241108
-1.625156 0.865903 10.223171 -0.254726 -1.160922 -0.241754
-1.636108 0.836710 10.390247 -0.265832 -1.167094 -0.242017
-1.788802 0.773665 10.564328 -0.268747 -1.212560 -0.257413
-2.033558 0.876799 10.567754 -0.286619 -1.270863 -0.274517
-1.930334 1.008698 10.612457 -0.304330 -1.277242 -0.283299
-1.954624 0.960488 10.744647 -0.302210 -1.293338 -0.288352
-1.961923 0.794792 10.755553 -0.289948 -1.299716 -0.288687
-1.972858 0.700363 10.924482 -0.288595 -1.298148 -0.287864
-2.120819 0.553742 10.858609 -0.292319 -1.316844 -0.288966
-2.105431 0.332739 10.815080 -0.289596 -1.305401 -0.285249
-2.242261 0.071820 10.830906 -0.277877 -1.325014 -0.287436
-2.358957 -0.033036 10.751289 -0.271348 -1.350492 -0.293597
-2.392714 -0.050859 10.460437 -0.253900 -1.362478 -0.297677
-2.379098 -0.081648 10.117895 -0.208762 -1.369008 -0.299809
-2.489952 -0.015949 9.812957 -0.195716 -1.398765 -0.304765
-2.476144 0.033292 9.418495 -0.190919 -1.392248 -0.303597
-2.450051 -0.125443 9.053626 -0.175026 -1.378104 -0.300715
-2.507979 -0.340311 8.698093 -0.158869 -1.384380 -0.301201
-2.479518 -0.458640 8.408563 -0.146608 -1.363706 -0.294149
-2.381627 -0.503171 7.833797 -0.136621 -1.339262 -0.288925
-2.425561 -0.529284 7.314584 -0.127281 -1.340681 -0.287230
-2.482718 -0.517322 6.875144 -0.106531 -1.333532 -0.281050
-2.430830 -0.555429 6.462125 -0.085316 -1.311730 -0.274206
-2.449100 -0.555108 6.026215 -0.081519 -1.307174 -0.272263
-2.535460 -0.636284 5.589326 -0.074893 -1.315398 -0.271517
-2.439138 -0.644520 5.164136 -0.077866 -1.303762 -0.269444
-2.422135 -0.706343 4.748252 -0.070727 -1.308149 -0.270112
-2.405047 -0.611660 4.229090 -0.077914 -1.315328 -0.271216
-2.404726 -0.580749 3.832567 -0.075028 -1.317654 -0.270029
-2.396751 -0.525914 3.473059 -0.068324 -1.318027 -0.268257
-2.316919 -0.488162 3.104805 -0.051062 -1.319014 -0.266926
-2.332108 -0.410891 2.737394 -0.048498 -1.332278 -0.269122
-2.305894 -0.305875 2.214094 -0.049751 -1.332067 -0.270309
-2.213786 -0.371601 2.197535 -0.018928 -1.309322 -0.265627
-2.252463 -0.699487 2.142347 0.043221 -1.327689 -0.268692
-2.292120 -0.521182 1.618709 0.036003 -1.358828 -0.275886
-2.248810 -0.271996 1.143455 0.013788 -1.363854 -0.278724
-2.172545 -0.291200 0.968149 0.038141 -1.351057 -0.275606
-2.189059 -0.289317 0.776377 0.054753 -1.375864 -0.281553
-2.163522 -0.228034 0.674388 0.065537 -1.372930 -0.281846
-2.134319 -0.109923 0.498155 0.067014 -1.370635 -0.285709
-2.129235 0.059061 0.306665 0.058737 -1.376502 -0.291953
-2.238507 -0.007152 0.289463 0.081525 -1.393855 -0.298285
-2.309785 -0.069673 0.149860 0.100154 -1.403991 -0.299432
-2.255662 0.011770 0.006400 0.097428 -1.404697 -0.301917
-2.199458 0.052807 -0.052495 0.106118 -1.378378 -0.295550
-2.281907 -0.070576 0.034056 0.126973 -1.396516 -0.299134
-2.290416 0.001937 -0.041764 0.120657 -1.397919 -0.299712
-2.341127 0.115310 -0.105814 0.107490 -1.400219 -0.300341
-2.243010 0.217786 -0.066906 0.096692 -1.386420 -0.301991
-2.225845 0.171974 -0.009510 0.104501 -1.390511 -0.306912
-2.364439 0.093647 0.072166 0.116929 -1.407900 -0.309294
-2.354356 0.126116 0.006901 0.110921 -1.419533 -0.313451
-2.424521 0.263971 -0.126247 0.092955 -1.422365 -0.310318
-2.295814 0.215817 -0.143648 0.097770 -1.404980 -0.306266
-2.386452 0.054342 -0.008877 0.116663 -1.423087 -0.305630
-2.372071 0.046877 0.085499 0.116187 -1.418000 -0.302223
-2.330317 0.218595 0.009362 0.084096 -1.417401 -0.304466
-2.423145 0.312489 -0.081732 0.063250 -1.427954 -0.306568
-2.373880 0.252547 0.140131 0.059833 -1.420093 -0.308004
-2.366493 0.161897 0.356472 0.055684 -1.421215 -0.311975
-2.241803 0.234026 0.385913 0.031444 -1.394744 -0.308823
-2.344849 0.318535 0.294393 0.006886 -1.412886 -0.311363
-2.275801 0.164251 0.682480 0.026574 -1.391321 -0.303237
-2.199254 -0.086008 1.044239 0.059264 -1.366253 -0.294270
-2.306422 -0.005060 1.112914 0.034455 -1.384927 -0.295322
-2.338169 0.017407 1.228943 0.009199 -1.384385 -0.295132
-2.372762 -0.183931 1.623608 0.014343 -1.370067 -0.295749
-2.481147 -0.281173 2.161105 -0.005164 -1.385570 -0.308546
-2.541306 -0.390894 2.450578 -0.030834 -1.390481 -0.318602
-2.250848 -0.380065 2.797235 -0.065424 -1.343505 -0.320801
-2.546413 -0.248619 3.148571 -0.110794 -1.386692 -0.329904
-2.430243 -0.250559 3.683398 -0.128429 -1.363687 -0.329500
-2.576387 -0.282123 4.300109 -0.131746 -1.360069 -0.323889
-2.553882 -0.238543 4.711180 -0.140917 -1.357647 -0.323473
-2.681866 -0.160518 5.320676 -0.162948 -1.386691 -0.329851
-2.459192 -0.236826 5.610399 -0.175667 -1.332640 -0.323836
-2.361506 -0.329854 6.129713 -0.194889 -1.330013 -0.331511
-2.544312 -0.447289 6.461274 -0.205852 -1.363585 -0.340010
-2.458214 -0.722804 6.737975 -0.185018 -1.339458 -0.339101
-2.570057 -0.722875 6.906339 -0.188564 -1.356556 -0.343774
-2.695867 -0.732962 6.702755 -0.204595 -1.385702 -0.352781
-2.831631 -0.734451 6.639837 -0.222261 -1.400949 -0.356822
-2.597152 -0.967977 6.622805 -0.202953 -1.346437 -0.347690
-2.586416 -1.050380 6.464076 -0.193151 -1.358078 -0.351302
-2.585752 -0.982584 5.875928 -0.193872 -1.359554 -0.351084
-2.566738 -0.881804 5.243587 -0.173663 -1.334922 -0.344594
-2.647768 -0.925101 4.876447 -0.138082 -1.331549 -0.341537
-2.676957 -1.001236 4.424452 -0.093381 -1.323763 -0.337224
-2.593680 -0.983508 3.960320 -0.067209 -1.305583 -0.331828
-2.464424 -0.823359 3.224169 -0.069620 -1.305530 -0.332157
-2.433145 -0.715496 2.779245 -0.073304 -1.313117 -0.333252
-2.351458 -0.618978 2.313855 -0.067468 -1.306214 -0.332657
-2.481058 -0.666675 2.053859 -0.033853 -1.329794 -0.334397
-2.578071 -0.646885 1.759092 -0.003848 -1.345408 -0.334237
-2.535248 -0.455491 1.256744 0.000843 -1.335897 -0.331111
-2.469574 -0.274775 0.842858 0.005451 -1.326177 -0.324074
-2.489993 -0.261721 0.624397 0.029492 -1.330907 -0.313246
-2.390575 -0.240314 0.472711 0.051482 -1.312839 -0.296465
-2.346975 -0.169305 0.281201 0.059616 -1.314051 -0.290116
-2.286688 -0.137633 0.252876 0.073776 -1.308543 -0.286724
-2.301367 -0.025853 0.124090 0.074483 -1.323013 -0.291678
-2.279559 0.030890 0.067781 0.075695 -1.320883 -0.291935
-2.193263 0.094819 0.048737 0.082549 -1.302684 -0.287879
-2.176773 0.116997 0.007123 0.091078 -1.306733 -0.287829
-2.224845 0.186646 -0.055711 0.089246 -1.319501 -0.288310
-2.242943 0.245858 -0.100800 0.084863 -1.325188 -0.286748
-2.213319 0.285752 -0.218697 0.079647 -1.325043 -0.285871
-2.229466 0.227284 -0.215433 0.085600 -1.331047 -0.286521
-2.232165 0.161870 -0.075474 0.098571 -1.330718 -0.286185
-2.237357 0.107910 -0.034222 0.105810 -1.334809 -0.287731
-2.232522 0.127345 -0.086645 0.102959 -1.335916 -0.289575
-2.232006 0.060847 -0.047537 0.113340 -1.338463 -0.291392
-2.257433 0.082135 -0.032542 0.113722 -1.341794 -0.292768
-2.216728 0.104905 -0.098678 0.112764 -1.336577 -0.292615
-2.174053 0.148738 -0.077863 0.111562 -1.328546 -0.291511
-2.177351 0.212313 -0.146437 0.103811 -1.331552 -0.292018
-2.146969 0.244403 -0.173912 0.099277 -1.324721 -0.290947
-2.171901 0.257403 -0.172196 0.096749 -1.334931 -0.293857
-2.219046 0.231636 -0.150768 0.097707 -1.343564 -0.295808
-2.256021 0.257099 -0.208865 0.091484 -1.351421 -0.298078
-2.227153 0.252695 -0.203983 0.091818 -1.347715 -0.298898
-2.235436 0.197507 -0.140536 0.099000 -1.353339 -0.301441
-2.265400 0.098895 -0.071569 0.113345 -1.355417 -0.302045
-2.263475 0.093993 -0.083778 0.113872 -1.358757 -0.303855
-2.269645 0.134462 -0.065240 0.110297 -1.356704 -0.303802
-2.268941 0.125165 -0.119444 0.110399 -1.358594 -0.305214
-2.262379 0.152423 -0.098401 0.107194 -1.357277 -0.305477
-2.233077 0.165616 -0.116264 0.104033 -1.354760 -0.305970
-2.213258 0.225050 -0.121741 0.097029 -1.348553 -0.305711
-2.191520 0.214021 -0.139902 0.097949 -1.347864 -0.306526
-2.256515 0.181024 -0.102776 0.102138 -1.358127 -0.307950
-2.296404 0.114375 -0.035402 0.110880 -1.362200 -0.307673
-2.305745 0.068304 -0.023187 0.114887 -1.363964 -0.308286
-2.307098 0.049946 -0.020071 0.114392 -1.362664 -0.308346
-2.337537 0.054309 0.036903 0.109556 -1.365754 -0.310060
-2.317357 0.041856 0.082364 0.105994 -1.362243 -0.311375
-2.309444 0.031389 0.154488 0.103467 -1.357416 -0.311722
-2.310352 0.041650 0.193205 0.095423 -1.355153 -0.312155
-2.337550 0.091501 0.238944 0.081422 -1.355938 -0.312530
-2.303913 0.062449 0.307356 0.076493 -1.344816 -0.310669
-2.275683 0.105494 0.252342 0.058134 -1.343025 -0.312038
-2.291645 0.087443 0.332703 0.050922 -1.338625 -0.310486
-2.239036 0.008216 0.516534 0.052381 -1.321922 -0.306761
-2.256479 -0.051454 0.569120 0.049844 -1.323649 -0.307097
-2.364578 -0.009107 0.567852 0.032418 -1.337378 -0.307764
-2.325221 -0.029658 0.600154 0.030589 -1.326947 -0.305882
-2.346476 -0.062673 0.666573 0.029832 -1.329773 -0.306122
-2.385712 -0.080038 0.699721 0.027580 -1.336436 -0.307525
-2.348476 -0.043945 0.678021 0.019386 -1.329258 -0.306972
-2.320146 -0.041394 0.686438 0.017062 -1.320247 -0.305630
-2.316126 -0.035874 0.711509 0.012154 -1.322958 -0.306776
-2.381139 -0.069238 0.733911 0.009479 -1.323840 -0.305676
-2.352484 -0.114611 0.805825 0.008595 -1.312795 -0.302938
-2.325553 -0.110842 0.835606 0.000527 -1.305297 -0.302444
-2.309544 -0.106569 0.880335 -0.008440 -1.298826 -0.301658
-2.293328 -0.116037 0.915874 -0.015445 -1.293366 -0.301615
-2.285129 -0.128888 0.969661 -0.018873 -1.289570 -0.301467
-2.280648 -0.126785 1.003467 -0.022670 -1.288409 -0.301856
-2.334795 -0.122157 0.994357 -0.021120 -1.298706 -0.302984
-2.343868 -0.108964 0.967464 -0.018952 -1.298746 -0.302494
-2.333476 -0.121004 0.969928 -0.015109 -1.298576 -0.302249
-2.370539 -0.093037 0.976691 -0.023596 -1.303200 -0.303270
-2.339700 -0.089995 0.992034 -0.030098 -1.295321 -0.302505
-2.320249 -0.099634 1.019766 -0.035033 -1.292210 -0.302615
-2.324590 -0.127814 1.049690 -0.037219 -1.294531 -0.303105
-2.344911 -0.105796 1.061664 -0.044531 -1.295171 -0.302450
-2.322201 -0.107335 1.074279 -0.049421 -1.291142 -0.301372
-2.317897 -0.124081 1.132500 -0.054101 -1.289601 -0.300254
-2.318097 -0.139838 1.175278 -0.054407 -1.288874 -0.299455
-2.293715 -0.104974 1.205426 -0.064712 -1.287886 -0.299473
-2.299145 -0.054868 1.186801 -0.076754 -1.290747 -0.299383
-2.319781 -0.026389 1.218312 -0.088107 -1.296744 -0.299245
-2.334133 -0.062595 1.275454 -0.090677 -1.304196 -0.299526
-2.320807 -0.044606 1.324918 -0.101386 -1.300451 -0.297385
-2.332992 0.003835 1.318427 -0.119421 -1.309449 -0.298984
-2.350690 0.009228 1.417715 -0.131610 -1.314569 -0.299200
-2.368501 -0.038081 1.625221 -0.135953 -1.311952 -0.297629
-2.354292 0.002711 1.778827 -0.153531 -1.311586 -0.299073
-2.394438 0.080215 1.957587 -0.178708 -1.315120 -0.300929
-2.399208 0.057291 2.315575 -0.185395 -1.303113 -0.298482
-2.419417 0.049736 2.631683 -0.200986 -1.309615 -0.301800
-2.464020 0.089633 2.935518 -0.224778 -1.311299 -0.303863
-2.492470 0.106215 3.407132 -0.249152 -1.292993 -0.303086
-2.527193 0.069127 3.891669 -0.259757 -1.287301 -0.302242
-2.652350 0.127739 4.370165 -0.284641 -1.308626 -0.303752
-2.554681 0.067034 5.095213 -0.300329 -1.307470 -0.299018
-2.506878 0.149622 5.406135 -0.336666 -1.338558 -0.300483
-2.329309 0.236249 6.038460 -0.383769 -1.384326 -0.301355
-2.200164 0.051185 6.820710 -0.401924 -1.424714 -0.301218
-2.158974 -0.133793 7.373878 -0.392839 -1.444551 -0.300325
-2.172574 -0.331435 8.116247 -0.384236 -1.487379 -0.303659
-2.293693 -0.245409 8.397016 -0.408804 -1.519082 -0.305479
-2.234654 -0.026617 8.553807 -0.435754 -1.497567 -0.298895
-2.202957 -0.262920 9.331114 -0.389794 -1.469553 -0.289719
-2.344840 -0.421598 9.827310 -0.374141 -1.482634 -0.290149
-2.337046 -0.351902 10.060786 -0.399501 -1.472013 -0.288768
-2.294592 -0.224069 10.300546 -0.438525 -1.457881 -0.288441
-2.338132 -0.348325 10.777956 -0.444869 -1.470009 -0.292695
-2.356573 -0.567266 11.399083 -0.430145 -1.484680 -0.297564
-2.310387 -0.673045 11.846358 -0.425086 -1.487862 -0.299667
-2.251516 -0.611071 12.181658 -0.442586 -1.502961 -0.304364
-2.377247 -0.427199 12.329048 -0.480697 -1.551436 -0.312150
-2.269541 -0.522456 12.738105 -0.478344 -1.539007 -0.307889
-2.405621 -0.843535 13.365272 -0.451815 -1.565908 -0.309886
-2.519613 -1.009646 13.854915 -0.451189 -1.584114 -0.312241
-2.576189 -0.825903 13.792381 -0.501891 -1.596073 -0.318849
-2.548582 -0.693271 13.882971 -0.531761 -1.562552 -0.315868
-2.554820 -0.939226 14.304842 -0.496462 -1.543326 -0.314150
-2.682353 -1.059660 14.586974 -0.473414 -1.543221 -0.313607
-2.708990 -0.985048 14.551578 -0.479735 -1.530614 -0.309984
-2.631138 -0.820050 14.360661 -0.500989 -1.509044 -0.305838
-2.581856 -0.907802 14.341799 -0.489586 -1.491670 -0.301329
-2.611229 -1.127275 14.486872 -0.457448 -1.484645 -0.297477
-2.634250 -1.268039 14.536942 -0.438236 -1.478337 -0.296137
-2.678596 -1.200745 14.343993 -0.449949 -1.473878 -0.297165
-2.715104 -1.141031 14.182757 -0.458662 -1.471740 -0.299006
-2.774321 -1.134814 14.104902 -0.458397 -1.474034 -0.301365
-2.804649 -1.144801 14.115756 -0.454427 -1.476065 -0.302231
-2.726843 -1.031217 13.909294 -0.471323 -1.467851 -0.300004
-2.648980 -0.883456 13.753949 -0.489896 -1.458096 -0.296588
-2.567711 -0.733903 13.543333 -0.504140 -1.450918 -0.292680
-2.584374 -0.728943 13.433376 -0.494590 -1.453611 -0.289419
-2.553641 -0.745333 13.418640 -0.475169 -1.441642 -0.284390
-2.481848 -0.721571 13.316491 -0.462801 -1.424881 -0.281186
-2.429181 -0.538922 12.983111 -0.480207 -1.416564 -0.281723
-2.403502 -0.428291 12.648706 -0.487044 -1.409497 -0.281992
-2.376562 -0.485549 12.566801 -0.468477 -1.398024 -0.279744
-2.386252 -0.493280 12.340468 -0.457603 -1.394533 -0.279764
-2.423371 -0.368340 11.931115 -0.467129 -1.400847 -0.281522
-2.452246 -0.206370 11.463757 -0.480476 -1.406368 -0.282889
-2.414064 -0.116253 11.092565 -0.484323 -1.399162 -0.281381
-2.373052 -0.117591 10.787562 -0.473260 -1.392453 -0.279453
-2.344753 -0.164701 10.501914 -0.456867 -1.388439 -0.277800
-2.322936 -0.140242 10.240199 -0.457635 -1.386974 -0.277801
-2.311791 -0.061769 9.818401 -0.466365 -1.389466 -0.279593
-2.295333 0.039705 9.527311 -0.471167 -1.380570 -0.279940
-2.295492 -0.024573 9.473555 -0.450244 -1.373458 -0.281025
-2.321351 -0.015178 9.468416 -0.440444 -1.367533 -0.283708
-2.358618 0.134740 9.328056 -0.453067 -1.361342 -0.287781
-2.343097 0.339566 9.205868 -0.468589 -1.344214 -0.290022
-2.332351 0.421550 9.329712 -0.461752 -1.328104 -0.291205
-2.414229 0.484806 9.425593 -0.452988 -1.335759 -0.295135
-2.521956 0.619893 9.509103 -0.455738 -1.352687 -0.299523
-2.444618 0.667748 9.670464 -0.452389 -1.340850 -0.299152
-2.384295 0.570915 9.914844 -0.442599 -1.332216 -0.297740
-2.387998 0.485531 10.168412 -0.449874 -1.348795 -0.301770
-2.425082 0.326768 10.579034 -0.463438 -1.367474 -0.304971
-2.357512 0.312965 10.678506 -0.495339 -1.368791 -0.307167
-2.305776 0.293892 11.053566 -0.517425 -1.366559 -0.306832
-2.313185 0.187549 11.633680 -0.512275 -1.368749 -0.306773
-2.395579 0.341136 12.368683 -0.531324 -1.382141 -0.310447
-2.386005 0.417109 12.537090 -0.539271 -1.377522 -0.310542
-2.320266 0.478085 12.931806 -0.541907 -1.356102 -0.308292
-2.350106 0.408483 13.518259 -0.533635 -1.353387 -0.310537
-2.479205 0.282662 14.175168 -0.523305 -1.369061 -0.313607
-2.538325 0.150995 14.827265 -0.518587 -1.379526 -0.314191
-2.468821 0.011135 15.479943 -0.515205 -1.389073 -0.312625
-2.379409 -0.057835 16.164136 -0.519823 -1.412007 -0.310610
-2.339078 -0.105806 16.672795 -0.526806 -1.448752 -0.312266
-2.325840 -0.212037 17.311164 -0.525308 -1.476258 -0.309824
-2.254247 -0.331028 17.922092 -0.527231 -1.491242 -0.307781
-2.259437 -0.285324 18.274115 -0.562841 -1.514090 -0.310535
-2.220207 -0.337428 18.521154 -0.575736 -1.522968 -0.311576
-2.097713 -0.404149 18.831992 -0.576869 -1.514559 -0.311025
-2.125182 -0.490185 19.042594 -0.564141 -1.514260 -0.311511
-2.191911 -0.556790 19.027115 -0.560475 -1.523648 -0.317893
-2.327138 -0.693598 19.038292 -0.547989 -1.516132 -0.318297
-2.388606 -0.838080 18.948320 -0.541594 -1.500574 -0.318171
-2.580951 -0.958716 18.800865 -0.540505 -1.501325 -0.316914
-2.539705 -1.074628 18.597124 -0.537528 -1.472112 -0.312650
-2.501690 -1.142280 18.496980 -0.518813 -1.447137 -0.307968
-2.513046 -1.114363 18.342646 -0.493615 -1.436211 -0.306224
-2.546073 -0.967008 18.074364 -0.474461 -1.435970 -0.306831
-2.593203 -0.720519 17.748753 -0.466288 -1.437070 -0.308374
-2.663981 -0.564170 17.550295 -0.466835 -1.437706 -0.311379
-2.624670 -0.495817 17.474035 -0.466264 -1.421793 -0.311812
-2.605384 -0.465861 17.268850 -0.462334 -1.397532 -0.307489
-2.557470 -0.387251 17.121615 -0.470972 -1.383017 -0.304902
-2.567833 -0.329954 16.966252 -0.476602 -1.368958 -0.301363
-2.595405 -0.303283 16.823667 -0.479245 -1.362077 -0.298509
-2.618053 -0.365983 16.779515 -0.471105 -1.364706 -0.297656
-2.568021 -0.441635 16.773153 -0.462912 -1.361250 -0.296970
-2.493156 -0.438926 16.795543 -0.466189 -1.357323 -0.297351
-2.401910 -0.416967 16.792892 -0.470843 -1.351757 -0.297236
-2.339236 -0.358780 16.881202 -0.475212 -1.343348 -0.296211
-2.278641 -0.354035 16.991690 -0.473759 -1.335539 -0.295662
-2.300308 -0.310047 17.172271 -0.480689 -1.333179 -0.295784
-2.286791 -0.216867 17.368195 -0.501302 -1.322320 -0.296139
-2.312062 -0.169090 17.562812 -0.522338 -1.316501 -0.298152
-2.358822 -0.130214 17.908683 -0.534439 -1.303264 -0.297561
-2.469548 -0.048927 18.245529 -0.540869 -1.307801 -0.300434
-2.439640 0.012918 18.601129 -0.538903 -1.293007 -0.299466
-2.425740 0.075864 18.887172 -0.540200 -1.288541 -0.298181
-2.358798 0.052288 19.264392 -0.541493 -1.299698 -0.299965
-2.334530 0.011914 19.562388 -0.553769 -1.320884 -0.302948
-2.255065 -0.084771 19.904543 -0.556674 -1.325129 -0.301673
-2.184118 -0.163681 20.193301 -0.560092 -1.333974 -0.303178
-2.243424 -0.197699 20.323645 -0.562012 -1.356409 -0.305621
-2.208827 -0.126511 20.404996 -0.570371 -1.356213 -0.305442
-2.097669 -0.139858 20.470191 -0.564765 -1.345326 -0.304140
-2.132691 -0.136059 20.424028 -0.560651 -1.344099 -0.301455
-2.183473 -0.099442 20.398561 -0.560122 -1.354446 -0.302995
-2.306032 -0.121461 20.202459 -0.554871 -1.357906 -0.302497
-2.287784 -0.199356 20.098527 -0.543042 -1.333326 -0.297801
-2.333670 -0.285428 19.920129 -0.534287 -1.326204 -0.298005
-2.425189 -0.301532 19.642888 -0.542365 -1.332706 -0.299505
-2.375916 -0.370382 19.532337 -0.540950 -1.303596 -0.295046
-2.338925 -0.495681 19.329734 -0.535911 -1.290177 -0.294849
-2.407733 -0.460453 19.083469 -0.540406 -1.296440 -0.296810
-2.450727 -0.381070 18.811030 -0.539678 -1.306724 -0.299012
-2.395838 -0.249763 18.544673 -0.526594 -1.299975 -0.296220
-2.336741 -0.084297 18.212754 -0.521745 -1.303723 -0.296875
-2.279560 0.020340 17.836857 -0.516385 -1.304285 -0.296306
-2.202469 0.016381 17.474346 -0.514920 -1.301263 -0.295972
-2.234515 -0.066630 17.051401 -0.515707 -1.312870 -0.296833
-2.226228 -0.191670 16.673244 -0.503859 -1.309764 -0.294990
-2.230825 -0.253393 16.281991 -0.489974 -1.309827 -0.293898
-2.276505 -0.184353 15.866488 -0.477237 -1.315305 -0.292577
-2.223012 -0.045767 15.416592 -0.472381 -1.304761 -0.290371
-2.207230 0.005039 15.069210 -0.460931 -1.294438 -0.288764
-2.224949 0.092030 14.757532 -0.463167 -1.286631 -0.290448
-2.251782 0.121489 14.544344 -0.468653 -1.284260 -0.292829
-2.250674 0.174864 14.341415 -0.478310 -1.274444 -0.294226
-2.235781 0.197081 14.121553 -0.481615 -1.264628 -0.297543
-2.254650 0.173861 14.031738 -0.474724 -1.258095 -0.299868
-2.289997 0.176572 13.899278 -0.466945 -1.252939 -0.300052
-2.306914 0.189837 13.773263 -0.459432 -1.244982 -0.298947
-2.327549 0.212468 13.648240 -0.454789 -1.240412 -0.298358
-2.338688 0.208992 13.595207 -0.448000 -1.239599 -0.298891
-2.356066 0.220543 13.533772 -0.445472 -1.240376 -0.299593
-2.362126 0.227039 13.474752 -0.445431 -1.244538 -0.301560
-2.400670 0.248221 13.405592 -0.448313 -1.250192 -0.303581
-2.352586 0.231833 13.444573 -0.447387 -1.247632 -0.304658
-2.331649 0.213836 13.472881 -0.448808 -1.248147 -0.305333
-2.259438 0.248574 13.524901 -0.456124 -1.251081 -0.307130
-2.228808 0.353670 13.662454 -0.463416 -1.265196 -0.310077
-2.128893 0.288406 14.085638 -0.432437 -1.257674 -0.306316
-2.191530 0.386575 14.362595 -0.420518 -1.290619 -0.310177
-2.159902 0.533156 14.809348 -0.428690 -1.284344 -0.306664
-2.162305 0.537610 15.144325 -0.453866 -1.290660 -0.310537
-2.267670 0.516395 15.966359 -0.495578 -1.299692 -0.315398
-2.382244 0.433421 16.829811 -0.523361 -1.298944 -0.319576
-2.408299 0.236432 17.969217 -0.514224 -1.276950 -0.320354
-2.505440 0.176972 19.069453 -0.513625 -1.294917 -0.327526
-2.579386 0.322247 19.945334 -0.543474 -1.343381 -0.336007
-2.438928 0.333041 21.256991 -0.556189 -1.356908 -0.330922
-2.254422 0.006662 22.727200 -0.541710 -1.406201 -0.334677
-2.204852 0.051561 23.794579 -0.610092 -1.495187 -0.346859
-2.072911 -0.025941 25.277485 -0.643312 -1.507031 -0.343358
-1.889822 -0.531099 27.188567 -0.609136 -1.523581 -0.348518
-1.960193 -1.018002 29.611792 -0.573793 -1.582109 -0.363454
-2.151491 -0.359589 30.197868 -0.704061 -1.675222 -0.387790
-1.828984 -0.115323 32.219568 -0.751872 -1.621138 -0.377756
-1.853388 -0.859037 35.063523 -0.686336 -1.676461 -0.384255
-1.945913 -0.846461 36.946293 -0.754614 -1.741246 -0.386915
-1.530923 -1.251175 39.420926 -0.756481 -1.688784 -0.372364
-1.752196 -1.440819 41.247025 -0.806348 -1.734739 -0.370811
-1.683677 -1.536358 43.533267 -0.829941 -1.705329 -0.365148
-2.042927 -2.127160 45.482628 -0.765246 -1.682502 -0.358470
-1.917850 -1.856561 46.991941 -0.822091 -1.562366 -0.345813
-2.581728 -1.988364 48.280428 -0.831296 -1.563518 -0.349262
-2.951816 -2.518449 49.086644 -0.808787 -1.472235 -0.331935
-2.996364 -2.594128 49.837509 -0.885134 -1.381328 -0.328671
-3.543737 -3.192040 50.455989 -0.871732 -1.340684 -0.318620
-3.120431 -3.970742 51.585457 -0.786487 -1.140716 -0.285727
-3.217487 -3.958542 51.561149 -0.771418 -1.134354 -0.287017
-3.466305 -3.317365 50.536321 -0.805980 -1.112893 -0.278394
-3.345415 -3.406023 50.245278 -0.766601 -0.989950 -0.264892
-3.805331 -4.125473 50.294951 -0.677792 -0.951066 -0.261803
-4.527614 -4.659091 50.088273 -0.641645 -0.929832 -0.258695
-3.904808 -4.586722 49.126981 -0.677569 -0.727954 -0.239994
-4.602538 -4.560555 48.417207 -0.652839 -0.766712 -0.241847
-4.654715 -4.159976 47.820377 -0.645658 -0.727386 -0.229632
-4.600211 -3.906377 47.102867 -0.640710 -0.684247 -0.218073
-3.870492 -3.782176 46.809019 -0.631242 -0.555275 -0.195920
-4.644974 -3.634568 46.353699 -0.644054 -0.762687 -0.230186
-4.211704 -3.197072 45.875212 -0.654457 -0.703127 -0.212079
-3.754926 -3.072710 45.404480 -0.635917 -0.649946 -0.201883
-3.674705 -2.759572 45.162761 -0.653701 -0.714046 -0.209396
-3.991312 -2.717723 45.104499 -0.673892 -0.809492 -0.206428
-3.271694 -2.500277 45.271393 -0.708856 -0.685264 -0.163116
-2.894777 -2.428546 45.530179 -0.723989 -0.723868 -0.164150
-3.026167 -1.911837 46.298581 -0.745087 -0.829526 -0.160386
-2.719237 -1.813668 46.645185 -0.709986 -0.881711 -0.151667
-1.818428 -1.024532 47.309799 -0.760684 -0.794194 -0.120734
-1.969503 -0.961751 48.027280 -0.766639 -0.916474 -0.129854
-1.797870 -1.005357 49.336451 -0.744723 -0.956155 -0.124627
-1.416608 -1.172164 50.403898 -0.679313 -0.911348 -0.104935
-1.088830 -0.627492 51.028313 -0.699462 -0.912473 -0.108970
-1.024004 -0.295809 51.628294 -0.682803 -0.994243 -0.128897
-1.509704 -0.231434 52.753797 -0.622997 -1.104622 -0.149985
-0.719874 -0.286188 53.707318 -0.569185 -0.944679 -0.136292
-0.706876 -0.047636 54.177873 -0.585580 -0.971582 -0.159406
-1.182454 -0.115055 54.901826 -0.555770 -1.060269 -0.173547
-1.343554 -0.062120 55.418120 -0.529815 -1.121016 -0.183982
-1.081392 0.097998 55.568917 -0.518019 -1.076804 -0.172216
-0.541652 0.142255 55.729394 -0.498858 -1.026095 -0.168294
-1.544313 -0.085826 55.854135 -0.466842 -1.171444 -0.184250
-1.372138 -0.088829 55.589921 -0.469378 -1.075403 -0.178157
-1.882086 -0.098255 55.048011 -0.478030 -1.060866 -0.182225
-1.855658 -0.066485 54.483888 -0.448420 -0.961853 -0.173242
-1.800416 -0.253729 54.298310 -0.362718 -0.927116 -0.178270
-2.420989 -0.025024 53.507318 -0.311384 -0.957174 -0.171637
-2.217388 0.266751 52.526712 -0.286609 -0.929839 -0.173910
-2.217095 0.151869 51.877113 -0.254351 -0.888458 -0.153942
-2.328558 -0.159759 51.524723 -0.227593 -0.908339 -0.146042
-1.923445 -0.299727 51.206602 -0.221740 -0.853765 -0.141326
-1.851413 -0.303163 50.800276 -0.196050 -0.792529 -0.131433
-2.529919 0.084830 50.514800 -0.187830 -0.860991 -0.157878
-2.664941 0.260158 50.295780 -0.181783 -0.842991 -0.163925
-2.598534 0.363104 50.254968 -0.167095 -0.778007 -0.159920
-3.174115 0.283937 50.027389 -0.168589 -0.910395 -0.167182
-2.117203 0.102474 50.004982 -0.160681 -0.808428 -0.130720
-2.209280 0.117065 49.368467 -0.193045 -0.884751 -0.117894
-1.767538 0.224467 48.890127 -0.211711 -0.873474 -0.112690
-2.175028 0.167440 48.427574 -0.181957 -0.940126 -0.121239
-2.012828 0.360776 47.769177 -0.153042 -0.862265 -0.107217
-2.239877 0.554399 47.242973 -0.156450 -0.899746 -0.114160
-2.290550 0.606854 46.496796 -0.154964 -0.891313 -0.103444
-1.865045 0.476107 45.975357 -0.141229 -0.831309 -0.087560
-1.454685 0.545797 45.441910 -0.155523 -0.799260 -0.076228
-1.961562 0.564325 44.836643 -0.158867 -0.926001 -0.086398
-1.650707 0.553326 44.406566 -0.139634 -0.904758 -0.078310
-1.268355 0.768269 43.467224 -0.145431 -0.891702 -0.070800
-1.141252 0.873252 43.166899 -0.161410 -0.896861 -0.074491
-1.175167 0.978261 42.530711 -0.181550 -0.928866 -0.081773
-1.034201 0.855825 42.116652 -0.165020 -0.900430 -0.076846
-1.138955 0.759095 41.853368 -0.149475 -0.929043 -0.083878
-1.361497 0.797436 41.251261 -0.149701 -0.969100 -0.090080
-1.416924 0.898245 40.605830 -0.147046 -0.988196 -0.096303
-1.474612 0.964153 40.085457 -0.143399 -1.007594 -0.105305
-1.392850 0.866488 39.563260 -0.124276 -0.991688 -0.110950
-1.313824 0.788701 39.190454 -0.119766 -0.983315 -0.120913
-1.434714 0.821568 38.736754 -0.131041 -0.996903 -0.135514
-1.505933 0.853610 38.415199 -0.131408 -1.004007 -0.147920
-1.639447 0.798450 38.343991 -0.114793 -1.021593 -0.156518
-1.705017 0.708154 38.396129 -0.100957 -1.043709 -0.167131
-1.820495 0.844036 38.410608 -0.126440 -1.074092 -0.176070
-1.735577 0.900224 38.567736 -0.141363 -1.103725 -0.189212
-1.839574 0.827190 38.935261 -0.131884 -1.142017 -0.196406
-1.898576 0.673556 39.398616 -0.109927 -1.181031 -0.205578
-2.013871 0.658900 39.777258 -0.108021 -1.248276 -0.221899
-2.141976 0.631552 40.122281 -0.108963 -1.308245 -0.234148
-2.045028 0.561383 40.732791 -0.117214 -1.334715 -0.244128
-2.126887 0.352265 41.365050 -0.125846 -1.370907 -0.253961
-2.046765 0.037900 42.070569 -0.139035 -1.363683 -0.260413
-2.191319 -0.244936 42.887474 -0.150685 -1.374613 -0.267332
-2.336896 -0.357742 43.448057 -0.162134 -1.388903 -0.275469
-2.399590 -0.465509 44.057320 -0.158014 -1.369877 -0.275774
-2.419408 -0.632888 44.722154 -0.141266 -1.357904 -0.277068
-2.576648 -0.827441 45.441933 -0.130950 -1.377722 -0.279167
-2.563426 -0.961167 45.923676 -0.136898 -1.392078 -0.279920
-2.456512 -1.206602 46.596022 -0.164764 -1.439338 -0.280367
-2.465496 -1.327262 46.924990 -0.177618 -1.475683 -0.281594
-2.492014 -1.511423 47.487604 -0.195393 -1.530604 -0.282534
-2.467770 -1.627555 48.128085 -0.211289 -1.563449 -0.280519
-2.459225 -1.563891 48.679826 -0.241221 -1.589063 -0.281323
-2.453009 -1.440964 49.204542 -0.264842 -1.613171 -0.288822
-2.411939 -1.474218 50.105530 -0.251692 -1.620685 -0.296466
-2.292184 -1.599981 51.216145 -0.231862 -1.618830 -0.303244
-2.299524 -1.584024 51.938082 -0.268640 -1.643969 -0.313187
-2.290022 -1.675189 52.847148 -0.309992 -1.644527 -0.317139
-2.287709 -2.103869 54.181359 -0.303246 -1.617963 -0.316007
-2.359531 -2.291328 55.257726 -0.328523 -1.612573 -0.321071
-2.408823 -2.057793 55.895812 -0.385636 -1.606044 -0.324435
-2.284265 -1.750573 56.691205 -0.437259 -1.566157 -0.319176
-2.195585 -1.993736 58.181292 -0.416147 -1.524920 -0.309999
-2.389429 -2.140596 59.047012 -0.430371 -1.555768 -0.312919
-2.360168 -2.254424 59.887113 -0.450029 -1.510809 -0.301753
-2.824957 -2.368040 60.425964 -0.482184 -1.541356 -0.307633
-2.951947 -2.234154 60.613784 -0.538519 -1.500328 -0.307154
-2.782838 -2.445088 61.309293 -0.530286 -1.382017 -0.292757
-3.079728 -2.832178 61.995758 -0.498402 -1.343216 -0.285815
-2.793998 -3.008648 62.690585 -0.489115 -1.246316 -0.275007
-3.163062 -2.868369 62.682030 -0.509482 -1.246991 -0.271364
-2.778175 -2.738848 62.907609 -0.500350 -1.127257 -0.251540
-3.381183 -2.631713 63.081149 -0.470922 -1.143973 -0.248243
-2.912292 -2.666071 63.367148 -0.442274 -1.008652 -0.227844
-3.061981 -2.571995 63.128473 -0.452098 -0.979039 -0.224205
-2.869834 -2.434032 62.835662 -0.460000 -0.893928 -0.211142
-3.212600 -2.333181 62.379943 -0.456293 -0.911582 -0.212279
-3.438766 -2.337962 61.975271 -0.429125 -0.917691 -0.209024
-3.279277 -2.181631 61.486447 -0.414634 -0.860586 -0.196639
-3.154188 -2.201304 60.855716 -0.395246 -0.854550 -0.196016
-3.330073 -2.047512 60.418777 -0.404629 -0.881005 -0.197257
-3.134902 -1.894947 60.028063 -0.398696 -0.833242 -0.193033
-3.181580 -1.638196 59.614260 -0.379501 -0.785377 -0.180746
-3.157961 -1.408260 59.443895 -0.353786 -0.813713 -0.188216
-3.281399 -1.045925 59.230879 -0.346552 -0.848836 -0.180367
-2.403247 -0.881530 59.209242 -0.342539 -0.750318 -0.159188
-2.311860 -0.711439 59.115608 -0.393556 -0.796584 -0.160135
-2.324711 -0.759219 59.382522 -0.431305 -0.855959 -0.169153
-2.518967 -0.864991 59.908099 -0.438934 -0.875241 -0.165623
-2.135365 -0.632608 60.435618 -0.437263 -0.813949 -0.149793
-2.178385 -0.233481 60.939505 -0.458466 -0.885636 -0.161663
-2.460615 0.014350 61.159123 -0.478196 -0.971277 -0.166777
-1.402724 -0.082072 62.074815 -0.489683 -0.869830 -0.155463
-1.563678 -0.202231 62.480708 -0.495648 -0.942832 -0.165665
-1.720500 -0.427023 63.045330 -0.470611 -1.013411 -0.172268
-1.688429 -0.243884 63.132143 -0.472173 -1.014149 -0.173317
-1.487159 0.065921 63.004255 -0.482373 -0.948234 -0.166441
-1.548833 0.037125 63.126610 -0.469088 -0.960783 -0.173987
-1.911483 -0.122764 63.294896 -0.441144 -0.984979 -0.171331
-1.526579 -0.161598 63.434488 -0.449336 -0.940966 -0.172042
-1.447229 -0.104851 63.349964 -0.472644 -0.926872 -0.169091
-1.425182 -0.214523 63.527406 -0.475588 -0.925749 -0.168279
-1.853616 -0.359976 64.046117 -0.467204 -1.018982 -0.183662
