fx fy fz tx ty tz 
-1.876611 0.204250 -0.063359 -0.107225 -0.643482 -0.138781
-1.879567 0.193012 -0.014349 -0.104618 -0.642045 -0.138201
-1.885996 0.000393 0.123717 -0.073337 -0.642712 -0.138054
-1.852406 0.321367 -0.551978 -0.115287 -0.629968 -0.134036
-1.902737 0.574283 -0.857647 -0.137093 -0.639688 -0.136564
-1.913776 0.250261 -0.405938 -0.077108 -0.637311 -0.137830
-1.874038 0.584621 -0.718215 -0.113053 -0.631013 -0.138900
-1.934321 0.737670 -1.054728 -0.116866 -0.637315 -0.142202
-1.920046 0.523400 -0.819343 -0.066124 -0.637524 -0.147357
-1.925065 0.209987 -0.821256 -0.004667 -0.642836 -0.152680
-1.960942 0.456679 -1.292332 -0.015458 -0.648163 -0.155530
-1.994717 0.335990 -1.361630 0.021477 -0.662975 -0.157997
-1.996544 0.050653 -0.969457 0.084592 -0.678322 -0.161478
-1.976491 0.458435 -1.390177 0.044896 -0.683506 -0.159530
-2.036345 0.760138 -1.760461 0.019044 -0.714805 -0.161886
-2.023604 0.426497 -1.389018 0.071583 -0.725205 -0.161007
-1.961461 0.418433 -1.424545 0.084714 -0.738793 -0.162628
-1.991268 0.751376 -1.741490 0.038426 -0.758513 -0.162483
-2.001404 0.340957 -1.459995 0.091308 -0.771122 -0.162656
-1.954848 0.285515 -1.314111 0.096069 -0.776653 -0.163707
-2.014637 0.590040 -1.410581 0.044083 -0.789110 -0.165196
-2.090784 0.508796 -1.269306 0.039243 -0.794930 -0.163913
-2.068403 0.617127 -1.256973 0.005427 -0.797355 -0.164185
-2.042592 0.864460 -1.325819 -0.043836 -0.793258 -0.160577
-2.062271 0.803563 -1.118541 -0.049850 -0.788068 -0.154486
-2.020845 0.713260 -0.906410 -0.063114 -0.786704 -0.151457
-1.917948 0.867147 -1.014524 -0.120435 -0.775153 -0.146861
-1.906776 0.776203 -0.809718 -0.139757 -0.777972 -0.146165
-1.887945 0.514321 -0.403692 -0.128497 -0.770603 -0.144985
-1.886249 0.610234 -0.169647 -0.166613 -0.771805 -0.147003
-1.949118 0.828702 -0.101901 -0.224213 -0.767236 -0.143989
-2.006135 0.712731 -0.040234 -0.242966 -0.761429 -0.136233
-1.938819 0.822981 -0.033706 -0.293570 -0.727842 -0.120633
-1.897237 0.882525 -0.033342 -0.332408 -0.700560 -0.107791
-1.886210 0.708229 0.286600 -0.333656 -0.671047 -0.100677
-1.803009 0.593765 0.442647 -0.335873 -0.636722 -0.103833
-1.729882 0.460464 0.633976 -0.328441 -0.604885 -0.103583
-1.724210 0.259122 0.837748 -0.311386 -0.577885 -0.098366
-1.721434 0.423212 0.640601 -0.349813 -0.563951 -0.090976
-1.738130 0.622343 0.531863 -0.393192 -0.554692 -0.083748
-1.773339 0.628938 0.511417 -0.417883 -0.547983 -0.082717
-1.804983 0.589241 0.707298 -0.424016 -0.551514 -0.090019
-1.790325 0.543316 0.787031 -0.414637 -0.539613 -0.091146
-1.764024 0.538665 0.756397 -0.411363 -0.529959 -0.091205
-1.757915 0.139196 1.176981 -0.344322 -0.518888 -0.090079
-1.688462 -0.074975 1.277285 -0.314842 -0.498174 -0.085478
-1.679185 0.254545 0.766891 -0.368012 -0.497524 -0.085131
-1.710403 0.224163 0.957506 -0.375173 -0.492720 -0.084758
-1.703879 0.159499 1.133562 -0.381415 -0.482872 -0.082271
-1.704319 0.536812 0.855191 -0.443983 -0.480180 -0.079448
-1.740888 0.517996 0.893934 -0.441811 -0.479592 -0.077541
-1.736089 0.242496 1.134305 -0.397628 -0.478580 -0.078786
-1.700542 0.080487 1.252835 -0.370249 -0.475897 -0.082295
-1.711824 0.056081 1.042191 -0.357761 -0.482360 -0.086589
-1.714854 0.027993 1.054563 -0.350807 -0.481501 -0.088389
-1.709572 0.004527 1.124609 -0.357472 -0.478188 -0.087266
-1.746997 0.027614 1.132738 -0.370975 -0.483466 -0.085583
-1.746981 0.218141 0.929003 -0.407050 -0.479359 -0.082316
-1.744460 0.160401 0.951466 -0.401510 -0.482768 -0.082695
-1.713576 -0.040475 1.100589 -0.370784 -0.474958 -0.082128
-1.722140 -0.072499 1.085411 -0.361240 -0.479717 -0.085707
-1.733215 -0.139245 1.059435 -0.346347 -0.476935 -0.086348
-1.728235 -0.209041 1.026671 -0.336210 -0.477927 -0.087684
-1.737706 -0.265032 1.086264 -0.330294 -0.481730 -0.088488
-1.726606 -0.173119 1.024807 -0.350952 -0.479036 -0.086065
-1.732561 -0.135504 1.011740 -0.362486 -0.478916 -0.084664
-1.740423 -0.074633 1.028691 -0.373206 -0.475204 -0.081973
-1.757447 -0.011776 0.962790 -0.380169 -0.478923 -0.082967
-1.757674 -0.019807 0.930903 -0.371555 -0.477954 -0.083993
-1.742753 -0.097341 0.919046 -0.351795 -0.481135 -0.086620
-1.715022 -0.081644 0.834196 -0.343836 -0.481515 -0.088464
-1.713535 -0.123941 0.800096 -0.329151 -0.479873 -0.087265
-1.718563 -0.116517 0.767646 -0.320927 -0.479305 -0.085954
-1.755429 -0.080179 0.689666 -0.317414 -0.487604 -0.086162
-1.758718 -0.013591 0.630959 -0.320504 -0.487767 -0.084997
-1.763901 0.043526 0.584613 -0.323448 -0.489780 -0.084977
-1.773581 0.088169 0.574212 -0.324878 -0.494572 -0.085847
-1.775540 0.098210 0.554858 -0.322924 -0.495672 -0.085696
-1.754653 0.108298 0.549771 -0.322255 -0.493743 -0.085801
-1.727654 0.096199 0.577405 -0.318949 -0.492961 -0.086957
-1.703479 0.073431 0.614210 -0.315043 -0.489892 -0.087154
-1.705965 0.054077 0.633777 -0.312270 -0.492426 -0.087972
-1.714883 0.011813 0.660444 -0.305718 -0.493778 -0.087564
-1.737635 0.000082 0.673210 -0.304296 -0.496897 -0.088038
-1.763793 -0.013099 0.685007 -0.302834 -0.501724 -0.088370
-1.779102 -0.011448 0.705011 -0.303762 -0.505531 -0.088902
-1.784358 0.003895 0.711019 -0.306434 -0.507437 -0.089086
-1.778099 0.035111 0.735533 -0.311336 -0.506395 -0.089235
-1.780112 0.027400 0.713877 -0.311070 -0.507739 -0.089776
-1.771469 0.008282 0.720359 -0.309699 -0.507229 -0.089969
-1.751201 0.006044 0.780169 -0.310729 -0.503359 -0.089842
-1.744186 -0.072372 0.838308 -0.301997 -0.506755 -0.091450
-1.721803 -0.045381 0.886209 -0.309321 -0.503142 -0.091343
-1.709791 -0.045031 0.905774 -0.314152 -0.503715 -0.092020
-1.711289 -0.021606 0.897392 -0.323678 -0.502965 -0.091566
-1.727144 -0.000629 0.939227 -0.333585 -0.503785 -0.090821
-1.746794 0.059704 0.947495 -0.352849 -0.505239 -0.089782
-1.766304 0.090159 0.993705 -0.370484 -0.505889 -0.088465
-1.772994 0.152104 1.031901 -0.392063 -0.508091 -0.088152
-1.761615 0.168385 1.061390 -0.404965 -0.504529 -0.087583
-1.742788 0.182440 1.097325 -0.417265 -0.500049 -0.087045
-1.719779 0.182077 1.147488 -0.421614 -0.493172 -0.086121
-1.708133 0.181354 1.142057 -0.423557 -0.489404 -0.085969
-1.689913 0.178113 1.188298 -0.422301 -0.485420 -0.085697
-1.680173 0.197195 1.157355 -0.425799 -0.483761 -0.084866
-1.699114 0.228678 1.153336 -0.431900 -0.485147 -0.084699
-1.720878 0.246402 1.117746 -0.438042 -0.485354 -0.084000
-1.744891 0.188199 1.194039 -0.432912 -0.489227 -0.084139
-1.754832 0.189787 1.165811 -0.437746 -0.491473 -0.084615
-1.744490 0.180962 1.166458 -0.438291 -0.489994 -0.085205
-1.724636 0.141868 1.162545 -0.431959 -0.487394 -0.085713
-1.710569 0.097926 1.181133 -0.423006 -0.484687 -0.086137
-1.703230 0.124653 1.129815 -0.424512 -0.481630 -0.085845
-1.712088 0.131723 1.083717 -0.423369 -0.481896 -0.085805
-1.712947 0.062729 1.131324 -0.412350 -0.482495 -0.085750
-1.713991 0.090462 1.085089 -0.417847 -0.480762 -0.084814
-1.729382 0.073179 1.077145 -0.418969 -0.482015 -0.084017
-1.729176 0.019943 1.115017 -0.413666 -0.480995 -0.083395
-1.735048 0.016277 1.124375 -0.410836 -0.482490 -0.084243
-1.743525 0.011462 1.112838 -0.408780 -0.484635 -0.085319
-1.726194 0.015092 1.111908 -0.407792 -0.483607 -0.085841
-1.722858 0.063102 1.085674 -0.415237 -0.483917 -0.086627
-1.711041 0.106557 1.063588 -0.423518 -0.479353 -0.085563
-1.708652 0.096260 1.106094 -0.424539 -0.478469 -0.085408
-1.702145 0.127988 1.091054 -0.430671 -0.477017 -0.085278
-1.719990 0.156903 1.096220 -0.434340 -0.480646 -0.085879
-1.724466 0.141899 1.103100 -0.432388 -0.481276 -0.084970
-1.733388 0.143245 1.129964 -0.432987 -0.485617 -0.085215
-1.718974 0.170520 1.116620 -0.437519 -0.481362 -0.083569
-1.726582 0.182933 1.128577 -0.440457 -0.485081 -0.084299
-1.711246 0.216328 1.128717 -0.445561 -0.483867 -0.084452
-1.703316 0.254534 1.114246 -0.451129 -0.482381 -0.084747
-1.718702 0.261862 1.108949 -0.453178 -0.482698 -0.084980
-1.707693 0.289020 1.091567 -0.458068 -0.483197 -0.085401
-1.706184 0.281905 1.083824 -0.457705 -0.479844 -0.084481
-1.700353 0.238142 1.111893 -0.451879 -0.478548 -0.083720
-1.709316 0.211447 1.111401 -0.446788 -0.478837 -0.083066
-1.721408 0.215684 1.095866 -0.446084 -0.482396 -0.083643
-1.727272 0.213873 1.083196 -0.444745 -0.481492 -0.082795
-1.730229 0.222524 1.070508 -0.444269 -0.486775 -0.084170
-1.732842 0.221783 1.070188 -0.443383 -0.487832 -0.084542
-1.733516 0.245903 1.057591 -0.445597 -0.490770 -0.085710
-1.726230 0.241719 1.062985 -0.445119 -0.490033 -0.085818
-1.720697 0.266207 1.057473 -0.449028 -0.490308 -0.086100
-1.723519 0.279729 1.076850 -0.452519 -0.489973 -0.085982
-1.713806 0.244544 1.128246 -0.451166 -0.489565 -0.085989
-1.719425 0.241624 1.137375 -0.454547 -0.488693 -0.085780
-1.721674 0.302525 1.126965 -0.466172 -0.489085 -0.085503
-1.733661 0.263688 1.187369 -0.465880 -0.488539 -0.084999
-1.761571 0.268824 1.220457 -0.473632 -0.486058 -0.082691
-1.578900 0.302369 1.219160 -0.487530 -0.439767 -0.072573
-1.571842 0.306978 1.247806 -0.489871 -0.431221 -0.070155
-1.558739 0.267092 1.273610 -0.484859 -0.416900 -0.065629
-1.527218 0.305504 1.316321 -0.490569 -0.409162 -0.063683
-1.540866 0.249295 1.324476 -0.483542 -0.404100 -0.062777
-1.511888 0.410802 1.303121 -0.502465 -0.395301 -0.062277
-1.596326 0.170141 1.482331 -0.473981 -0.404436 -0.062881
-1.444486 0.228678 1.408631 -0.484179 -0.359466 -0.053533
-1.471152 0.637906 1.014819 -0.534229 -0.366668 -0.054630
-1.483766 0.308511 1.403532 -0.473257 -0.353261 -0.052746
-1.380833 0.095047 1.693494 -0.433590 -0.329664 -0.050450
-1.403403 0.339222 1.437164 -0.460933 -0.330667 -0.049615
-1.381582 0.732883 0.694908 -0.516553 -0.312394 -0.043658
-1.379941 0.315142 1.396160 -0.436963 -0.326298 -0.050652
-1.365913 -0.291570 1.932231 -0.345154 -0.306866 -0.048547
-1.497133 0.843335 0.619542 -0.493389 -0.331518 -0.053594
-1.423400 0.059963 1.572413 -0.372625 -0.309369 -0.053631
-1.161531 0.129282 1.639713 -0.377836 -0.237252 -0.043588
-1.349839 0.190631 1.042221 -0.402248 -0.276951 -0.051825
-1.158508 0.759097 1.148608 -0.466100 -0.227845 -0.047187
-1.388581 0.020468 1.426014 -0.382699 -0.270677 -0.056327
-1.215538 -0.176148 1.288317 -0.351417 -0.217262 -0.048441
-1.409944 0.085027 1.088832 -0.359486 -0.266723 -0.060361
-1.206772 0.152038 1.639431 -0.367124 -0.232848 -0.061729
-1.272636 -0.616168 1.471367 -0.281978 -0.231824 -0.060815
-1.342091 0.398010 1.906525 -0.397555 -0.253123 -0.063693
-1.257145 -0.214755 1.260332 -0.333208 -0.235193 -0.056741
-1.159655 0.222849 1.543755 -0.348015 -0.244720 -0.058653
-1.054456 0.688024 1.035329 -0.424453 -0.225689 -0.046164
-1.168719 -0.234298 0.909384 -0.304448 -0.261128 -0.044817
-1.137588 0.123591 0.794892 -0.345222 -0.227884 -0.029122
-1.054097 -0.010832 1.142664 -0.323608 -0.198068 -0.021550
-1.063789 -0.032945 2.259945 -0.332376 -0.219117 -0.016285
-0.820833 0.343425 7.341482 -0.365070 -0.264803 -0.013053
-0.527444 0.317337 13.704038 -0.411982 -0.300260 -0.019993
-0.971149 0.225562 19.800797 -0.530701 -0.294693 -0.025032
-1.399856 -1.145779 27.475233 -0.487576 -0.225672 -0.038108
-2.550483 -2.118758 33.124844 -0.497137 -0.133108 -0.047059
-3.429642 -2.298436 35.300380 -0.667503 0.012218 -0.047504
-3.304504 -3.702997 37.499596 -0.656333 0.114289 -0.050421
-1.495944 -5.219021 35.505019 -0.524931 0.143080 -0.042828
-0.913460 -5.192863 30.987657 -0.484501 -0.110737 -0.052172
-0.320581 -5.205774 26.850979 -0.489927 -0.267693 -0.059754
-0.665338 -6.593390 22.296957 -0.368740 -0.460138 -0.075995
-0.933795 -6.704345 18.993186 -0.393404 -0.530063 -0.082044
-0.504294 -6.768503 15.946337 -0.404899 -0.523657 -0.088053
-0.992435 -7.122550 14.108520 -0.336057 -0.659923 -0.104489
-0.840788 -6.917483 13.432181 -0.335860 -0.675731 -0.106203
-0.462342 -6.192381 13.066523 -0.415255 -0.635176 -0.091434
0.057830 -5.902891 13.755634 -0.413194 -0.585316 -0.082819
0.637071 -5.287617 14.625717 -0.540072 -0.448810 -0.070860
0.119727 -5.056131 16.305689 -0.700945 -0.399729 -0.080918
-0.730968 -5.538041 18.804567 -0.742151 -0.444293 -0.108164
-1.256017 -4.766822 20.631495 -0.859187 -0.439824 -0.111526
-1.418596 -3.947637 21.244136 -0.901507 -0.457636 -0.115215
-1.580131 -3.446710 22.294012 -0.917340 -0.479369 -0.122629
-1.648032 -3.220704 22.683989 -0.948528 -0.476179 -0.122461
-1.509064 -3.062665 22.778910 -0.922907 -0.482979 -0.119777
-1.486472 -2.752564 21.671920 -0.873641 -0.507124 -0.111503
-1.351899 -1.726305 20.043986 -0.917571 -0.488637 -0.096505
-1.335124 -1.519190 18.649773 -0.871006 -0.500694 -0.087866
-1.177533 -1.200780 17.923501 -0.843183 -0.495034 -0.077231
-1.198186 -0.650738 16.608780 -0.861929 -0.542472 -0.071678
-1.219829 -0.315192 15.857854 -0.832020 -0.605294 -0.070155
-1.015946 -0.020576 15.487603 -0.777800 -0.625503 -0.068043
-0.916478 0.203725 15.190112 -0.746472 -0.654058 -0.071524
-0.850711 0.206129 15.158982 -0.734977 -0.648594 -0.070976
-1.063412 0.075382 15.208013 -0.749576 -0.667415 -0.075930
-1.174444 -0.070889 15.274521 -0.749005 -0.657530 -0.074090
-1.138080 0.010696 15.231541 -0.738118 -0.650151 -0.074480
-1.069658 0.090783 15.023763 -0.723340 -0.634896 -0.075440
-1.078875 -0.022868 15.004951 -0.697561 -0.632527 -0.079346
-1.189712 -0.207835 14.954448 -0.674916 -0.645839 -0.087053
-1.254226 -0.509649 14.933648 -0.645385 -0.652374 -0.091895
-1.349490 -0.755482 14.801178 -0.635049 -0.659799 -0.098040
-1.461477 -0.914432 14.704956 -0.623327 -0.662639 -0.103122
-1.498087 -1.149832 14.629607 -0.575330 -0.670526 -0.107827
-1.516403 -1.110617 14.439611 -0.546050 -0.686951 -0.113195
-1.451577 -1.033660 14.105462 -0.537896 -0.683512 -0.113486
-1.415406 -1.069891 13.943186 -0.535894 -0.680747 -0.113090
-1.347198 -1.192339 13.793695 -0.529098 -0.672255 -0.109655
-1.280287 -1.165465 13.567582 -0.532248 -0.669458 -0.106504
-1.231038 -1.206700 13.497041 -0.519809 -0.667592 -0.103776
-1.223633 -1.222786 13.362669 -0.519537 -0.666889 -0.102955
-1.259326 -1.398457 13.531502 -0.497223 -0.671776 -0.102742
-1.270725 -1.502221 13.668252 -0.484862 -0.681216 -0.103034
-1.305930 -1.463410 13.723083 -0.494495 -0.693765 -0.103656
-1.304359 -1.535209 13.917303 -0.485848 -0.701852 -0.105478
-1.274936 -1.573009 14.104713 -0.482155 -0.694620 -0.105368
-1.253256 -1.526578 14.205314 -0.492590 -0.683518 -0.104833
-1.233017 -1.523245 14.268998 -0.494720 -0.675356 -0.105531
-1.222425 -1.514236 14.428802 -0.495503 -0.663421 -0.104863
-1.181614 -1.558601 14.607097 -0.487449 -0.656683 -0.106306
-1.152705 -1.597806 14.756039 -0.479183 -0.653461 -0.108725
-1.130334 -1.676523 14.994924 -0.469128 -0.653507 -0.111020
-1.166820 -1.812577 15.261658 -0.464021 -0.656605 -0.113211
-1.243670 -1.958084 15.571785 -0.464127 -0.658472 -0.114104
-1.277098 -1.998654 15.706062 -0.477806 -0.657819 -0.114684
-1.279955 -2.001604 15.858312 -0.489004 -0.650364 -0.113352
-1.264920 -1.991888 15.903884 -0.498447 -0.643944 -0.111933
-1.226764 -1.965336 15.901575 -0.505748 -0.634393 -0.110377
-1.193018 -1.954025 15.838428 -0.509138 -0.628199 -0.109193
-1.148997 -2.020806 15.812693 -0.498989 -0.622158 -0.107930
-1.147206 -2.055706 15.704367 -0.494407 -0.619224 -0.106058
-1.203252 -2.064433 15.458240 -0.496311 -0.628708 -0.105207
-1.269337 -2.102830 15.264714 -0.492484 -0.632770 -0.102743
-1.378913 -2.040826 14.897897 -0.505445 -0.645484 -0.102848
-1.443548 -1.901223 14.475288 -0.529289 -0.650828 -0.100747
-1.392832 -1.773865 13.938173 -0.542431 -0.651981 -0.097577
-1.336409 -1.559911 13.325643 -0.542986 -0.661994 -0.095019
-1.267279 -1.381407 12.738847 -0.513071 -0.676216 -0.093751
-1.180591 -1.123141 11.946220 -0.499095 -0.678535 -0.091770
-1.182853 -1.049592 11.376016 -0.477289 -0.686875 -0.095257
-1.226784 -1.174577 10.856346 -0.446686 -0.688378 -0.097115
-1.266555 -1.133686 10.124094 -0.424326 -0.707369 -0.102047
-1.300645 -1.080736 9.729826 -0.406352 -0.733443 -0.106321
-1.320922 -0.955911 9.143819 -0.394642 -0.757756 -0.110870
-1.368003 -1.023872 8.871876 -0.372088 -0.770724 -0.115842
-1.379739 -1.025815 8.518737 -0.368928 -0.769360 -0.118123
-1.366553 -0.954289 8.233815 -0.368641 -0.768901 -0.118876
-1.366070 -0.865768 8.026509 -0.362738 -0.770338 -0.118304
-1.369200 -0.888034 7.981523 -0.349857 -0.771854 -0.118674
-1.325556 -0.980830 8.059337 -0.335432 -0.759697 -0.117054
-1.346056 -0.906930 8.118144 -0.347583 -0.762300 -0.118496
-1.396825 -1.064905 8.648653 -0.320116 -0.768778 -0.121566
-1.391998 -1.019115 8.907779 -0.322239 -0.756144 -0.121094
-1.536277 -0.959418 9.352712 -0.314385 -0.778793 -0.125556
-1.455390 -0.954296 9.885397 -0.321054 -0.763482 -0.123807
-1.474376 -1.195753 10.834312 -0.329035 -0.752562 -0.125874
-1.519456 -1.530373 11.877451 -0.358862 -0.740828 -0.127789
-1.499271 -1.605535 12.919144 -0.409176 -0.727625 -0.124270
-1.403901 -1.596353 13.969017 -0.421671 -0.744887 -0.125512
-1.347376 -1.529146 15.110043 -0.433894 -0.753097 -0.127190
-1.397414 -1.710453 16.041955 -0.459731 -0.730433 -0.131033
-1.522848 -1.815638 16.628183 -0.508208 -0.692831 -0.134059
-1.593543 -2.186189 17.369399 -0.475972 -0.673999 -0.137693
-1.609280 -2.366642 17.607080 -0.463262 -0.648805 -0.134756
-1.664065 -2.319098 17.333880 -0.495223 -0.644832 -0.135106
-1.606059 -2.523688 17.198123 -0.492572 -0.629980 -0.130256
-1.520936 -2.784334 17.166132 -0.451076 -0.642118 -0.131101
-1.328754 -2.327011 16.218484 -0.468111 -0.644636 -0.128062
-1.271389 -2.158738 15.446417 -0.429696 -0.672521 -0.129346
-1.282912 -2.210658 15.099784 -0.395362 -0.674228 -0.128440
-1.279866 -2.083312 14.422954 -0.417400 -0.666509 -0.126989
-1.311065 -1.929951 13.914263 -0.438440 -0.664808 -0.124687
-1.308465 -1.892302 13.612339 -0.427429 -0.666164 -0.122543
-1.348880 -1.719864 13.555436 -0.435971 -0.675014 -0.118742
-1.297117 -1.519159 13.543846 -0.439106 -0.679225 -0.113460
-1.118040 -1.376256 13.744734 -0.423844 -0.665683 -0.107013
-1.076748 -1.088296 13.868015 -0.435279 -0.653359 -0.101198
-1.203052 -1.113594 14.177218 -0.442638 -0.648358 -0.100555
-1.270601 -1.204053 14.501219 -0.484242 -0.620099 -0.098099
-1.291722 -1.354617 14.887972 -0.512746 -0.622763 -0.099885
-1.242265 -1.378005 15.325093 -0.524767 -0.631958 -0.099825
-1.154663 -1.330173 15.676412 -0.523807 -0.637328 -0.098655
-1.151425 -1.316895 16.089011 -0.523292 -0.647540 -0.099919
-1.223433 -1.487631 16.646409 -0.526304 -0.630879 -0.098401
-1.228593 -1.693617 17.231439 -0.536435 -0.598529 -0.098274
-1.256731 -1.814677 17.696635 -0.535665 -0.588962 -0.096774
-1.206039 -1.880858 18.299330 -0.533039 -0.575408 -0.092757
-1.172228 -1.874052 18.562861 -0.546556 -0.568518 -0.090936
-1.141163 -2.037722 19.137066 -0.547142 -0.565134 -0.091552
-1.087856 -2.074094 19.524702 -0.564179 -0.546019 -0.089750
-1.101612 -2.031933 19.962311 -0.580609 -0.535657 -0.087552
-1.128427 -2.043396 20.335029 -0.584181 -0.533054 -0.086361
-1.137170 -2.063893 20.707382 -0.595878 -0.525257 -0.085245
-1.141187 -2.119576 21.096112 -0.609675 -0.521687 -0.085833
-1.124701 -2.207607 21.573623 -0.611456 -0.514133 -0.084524
-1.112305 -2.216045 22.009910 -0.616041 -0.512002 -0.085417
-1.132399 -2.179014 22.412168 -0.627188 -0.508198 -0.086705
-1.184571 -2.275310 22.892868 -0.628740 -0.514245 -0.089346
-1.153793 -2.258557 23.241943 -0.653302 -0.504632 -0.087717
-1.152208 -2.268544 23.653654 -0.663388 -0.515120 -0.089423
-1.113006 -2.321640 24.078821 -0.655845 -0.523702 -0.091589
-1.084267 -2.255569 24.342968 -0.668127 -0.530003 -0.094296
-1.118845 -2.307489 24.625167 -0.670182 -0.546814 -0.097479
-1.057888 -2.435095 24.973143 -0.662185 -0.549808 -0.098674
-1.054706 -2.455016 25.210387 -0.665568 -0.557869 -0.101188
-1.082872 -2.396609 25.262827 -0.680371 -0.568721 -0.104518
-1.079758 -2.393354 25.402127 -0.684926 -0.580594 -0.107741
-1.068735 -2.388966 25.545680 -0.684351 -0.598279 -0.110803
-0.984942 -2.279152 25.562172 -0.694271 -0.603701 -0.111921
-0.948705 -2.232609 25.658539 -0.695050 -0.616102 -0.114135
-0.972329 -2.228481 25.780756 -0.697191 -0.625134 -0.115983
-1.006973 -2.231063 25.943964 -0.703254 -0.629796 -0.118106
-1.029759 -2.214579 26.153617 -0.700151 -0.638926 -0.120363
-1.011210 -2.114009 26.327335 -0.695427 -0.648155 -0.123431
-1.021830 -2.001096 26.489785 -0.693587 -0.657153 -0.127424
-1.077526 -1.961233 26.668731 -0.696523 -0.666390 -0.132436
-1.123123 -1.982723 26.866261 -0.693795 -0.679887 -0.136346
-1.083218 -1.931771 26.996822 -0.695172 -0.684021 -0.136580
-1.060726 -1.900165 27.117014 -0.693887 -0.695481 -0.137996
-1.077563 -1.860419 27.214188 -0.693715 -0.710837 -0.141654
-1.140433 -1.820324 27.354451 -0.686231 -0.728548 -0.146757
-1.137390 -1.773615 27.420846 -0.672819 -0.736625 -0.149969
-1.188951 -1.644073 27.408048 -0.668092 -0.755486 -0.156464
-1.212576 -1.608809 27.353841 -0.669230 -0.764577 -0.161163
-1.232615 -1.628299 27.280227 -0.665438 -0.777440 -0.164092
-1.228255 -1.662508 27.149346 -0.654082 -0.792006 -0.164952
-1.176716 -1.660016 26.935845 -0.646794 -0.800943 -0.166891
-1.223091 -1.635194 26.739512 -0.642835 -0.818350 -0.170816
-1.241238 -1.646653 26.561682 -0.631423 -0.824195 -0.174215
-1.260695 -1.635316 26.330899 -0.623227 -0.824449 -0.174686
-1.283251 -1.611995 26.075483 -0.617152 -0.829360 -0.174969
-1.263043 -1.635210 26.007404 -0.608970 -0.828237 -0.174633
-1.272791 -1.613665 25.869483 -0.606582 -0.830145 -0.174123
-1.241111 -1.583946 25.716225 -0.607609 -0.819905 -0.171626
-1.252860 -1.560813 25.579593 -0.608370 -0.817783 -0.170136
-1.258000 -1.574424 25.499903 -0.603819 -0.813257 -0.168319
-1.263078 -1.585853 25.447020 -0.599468 -0.813000 -0.167390
-1.265546 -1.559228 25.282664 -0.601459 -0.812748 -0.166667
-1.271636 -1.579256 25.188997 -0.596726 -0.812603 -0.166284
-1.251256 -1.630756 25.116231 -0.588080 -0.807062 -0.165374
-1.244878 -1.623787 24.966466 -0.587686 -0.803385 -0.164356
-1.250443 -1.616475 24.857620 -0.587410 -0.799837 -0.163255
-1.233298 -1.606832 24.781120 -0.588684 -0.793917 -0.161706
-1.232690 -1.620485 24.751481 -0.586280 -0.793111 -0.160748
-1.241550 -1.628136 24.743795 -0.584510 -0.792786 -0.159639
-1.231148 -1.643723 24.754011 -0.581765 -0.784196 -0.156622
-1.249565 -1.634060 24.733499 -0.583460 -0.779242 -0.154101
-1.263643 -1.681661 24.823150 -0.577573 -0.778431 -0.153140
-1.240556 -1.669797 24.901245 -0.580534 -0.770919 -0.150688
-1.219445 -1.596809 25.025482 -0.591613 -0.769957 -0.150214
-1.190757 -1.578128 25.253845 -0.592189 -0.773834 -0.150603
-1.152203 -1.543165 25.485783 -0.593902 -0.773225 -0.151068
-1.149773 -1.523509 25.688245 -0.607546 -0.770958 -0.153111
-1.178832 -1.668854 25.977491 -0.609713 -0.769872 -0.156642
-1.189114 -1.766613 26.243322 -0.617693 -0.765170 -0.158004
-1.200781 -1.744072 26.442691 -0.627413 -0.767071 -0.157436
-1.201305 -1.749208 26.697958 -0.626302 -0.767065 -0.155651
-1.194346 -1.819889 26.961980 -0.620117 -0.765388 -0.155094
-1.194903 -1.840818 27.185037 -0.635415 -0.756135 -0.153673
-1.205507 -1.889399 27.568288 -0.647876 -0.750728 -0.153542
-1.186240 -1.964252 27.995960 -0.647839 -0.741603 -0.152959
-1.194964 -1.989947 28.529057 -0.658750 -0.731621 -0.150683
-1.202692 -1.986114 28.961343 -0.681739 -0.723963 -0.150411
-1.238039 -2.174392 30.338842 -0.679052 -0.719379 -0.156240
-1.250979 -2.214817 30.704442 -0.680952 -0.713103 -0.156624
-1.332192 -2.137203 31.352080 -0.732324 -0.691114 -0.156363
-1.435832 -2.064590 32.088491 -0.785790 -0.681272 -0.157864
-1.529633 -2.536200 33.863635 -0.732302 -0.679919 -0.158973
-1.450872 -2.487913 34.951988 -0.749836 -0.670215 -0.157866
-1.496998 -2.232210 35.846887 -0.814459 -0.691867 -0.158764
-1.392555 -2.728795 37.536015 -0.775760 -0.704443 -0.161999
-1.244324 -2.820141 38.497058 -0.793108 -0.701907 -0.161910
-1.411966 -2.874681 39.357959 -0.803436 -0.751667 -0.167234
-1.383032 -3.211787 40.213764 -0.777652 -0.764938 -0.165403
-1.146318 -3.181968 40.647452 -0.801289 -0.776208 -0.167654
-1.192071 -3.283759 40.979391 -0.794161 -0.849494 -0.174691
-1.041510 -3.428035 41.138787 -0.777001 -0.857902 -0.180966
-1.006910 -3.561548 41.028637 -0.764604 -0.893498 -0.189016
-0.933138 -3.613812 40.854585 -0.752994 -0.956569 -0.197275
-0.613584 -3.675943 40.540105 -0.732407 -0.979942 -0.198708
-0.512926 -3.489690 40.322778 -0.745168 -1.006519 -0.202770
-0.797352 -3.360159 40.060167 -0.745979 -1.074267 -0.213342
-0.800418 -3.092176 39.989732 -0.744330 -1.064877 -0.220564
-0.826497 -2.647123 39.912132 -0.769605 -1.061504 -0.231175
-0.882367 -2.573391 40.013235 -0.793192 -1.068366 -0.238858
-0.949755 -2.632871 40.370582 -0.796374 -1.093987 -0.244457
-0.876334 -2.477701 40.587865 -0.794669 -1.090068 -0.238554
-0.957691 -2.114095 40.752286 -0.814255 -1.106253 -0.238588
-0.892886 -2.109212 41.163084 -0.807433 -1.066674 -0.238100
-1.140722 -2.142939 41.736448 -0.795334 -1.072876 -0.249788
-1.231803 -1.999648 41.918211 -0.795984 -1.066151 -0.254068
-1.334355 -1.957762 42.186609 -0.773895 -1.071815 -0.257240
-1.458969 -1.967250 42.450332 -0.754160 -1.075821 -0.257147
-1.140461 -1.970002 42.521417 -0.743556 -1.007733 -0.248042
-1.233156 -1.867264 42.421255 -0.733841 -1.024292 -0.249646
-1.465852 -1.749986 42.110549 -0.726623 -1.053945 -0.254067
-1.387318 -1.686590 41.659133 -0.717119 -1.039719 -0.254172
-1.436337 -1.728691 41.135864 -0.686131 -1.089344 -0.264561
-1.074628 -1.673476 40.340873 -0.680965 -1.047968 -0.258824
-1.163080 -1.627506 39.511477 -0.685970 -1.070718 -0.264598
-1.331250 -1.845833 38.980943 -0.661979 -1.085239 -0.266431
-0.995118 -1.792536 38.058158 -0.646675 -1.024441 -0.257912
-1.165820 -1.405504 36.713317 -0.622350 -1.072263 -0.268905
-1.178876 -1.083045 35.373882 -0.591461 -1.039288 -0.268052
-1.540684 -1.176711 34.213584 -0.548595 -1.079369 -0.280998
-1.456766 -0.911945 32.671236 -0.577799 -1.034209 -0.273972
-1.620539 -0.573461 31.170235 -0.594739 -1.076561 -0.280882
-1.616723 -0.578156 30.265910 -0.548458 -1.062475 -0.276559
-1.604672 -0.370936 29.014319 -0.542881 -1.056842 -0.274838
-1.755267 -0.051625 27.755158 -0.561885 -1.073351 -0.271495
-1.442532 -0.159056 27.131344 -0.525009 -1.028853 -0.268292
-1.607790 -0.156086 26.711713 -0.509987 -1.050865 -0.274528
-1.646944 0.095382 26.302815 -0.535241 -1.024208 -0.267420
-1.664614 0.077781 26.389551 -0.511522 -1.002994 -0.256424
-1.690317 0.157209 26.782519 -0.489144 -0.982835 -0.247154
-1.419318 0.300673 27.407700 -0.492135 -0.911913 -0.229500
-1.385528 0.077089 28.499398 -0.521285 -0.862933 -0.218800
-1.427003 -0.575810 30.596174 -0.553372 -0.812385 -0.215404
-1.443127 -1.083897 33.315636 -0.578641 -0.735018 -0.206924
-1.703164 -1.224000 36.305834 -0.605197 -0.670937 -0.199474
-2.025220 -1.238688 40.058857 -0.730261 -0.543415 -0.178266
-2.102941 -2.541034 43.819422 -0.654771 -0.480264 -0.165967
-1.915319 -2.968601 46.748592 -0.744644 -0.400682 -0.150492
-2.307136 -2.792961 49.473151 -0.810417 -0.454766 -0.155659
-1.979583 -3.270633 51.415241 -0.823211 -0.335353 -0.140012
-1.985435 -4.022697 53.017867 -0.835748 -0.372515 -0.147891
-1.598459 -5.330771 54.760626 -0.810376 -0.436476 -0.150466
-0.946198 -5.542444 54.630812 -0.863453 -0.530381 -0.154381
-0.825863 -5.227443 54.502779 -0.807938 -0.702466 -0.173277
-0.729210 -5.657442 54.439364 -0.698360 -0.748015 -0.175483
-0.678063 -6.237813 53.853084 -0.717086 -0.814593 -0.197943
-0.622661 -6.419466 53.454233 -0.725555 -0.933140 -0.215550
-0.347843 -6.371211 53.267289 -0.672346 -1.039855 -0.228250
-0.025288 -5.920901 52.591983 -0.688237 -1.105044 -0.237591
-0.433734 -5.308780 52.168210 -0.732570 -1.213693 -0.246595
-0.057270 -5.143059 52.021398 -0.700897 -1.191141 -0.245749
0.105897 -4.664875 51.463239 -0.711990 -1.177962 -0.244381
-0.124696 -3.984793 50.274740 -0.808115 -1.228456 -0.250275
0.077162 -3.974413 49.169277 -0.791150 -1.297765 -0.263762
0.052703 -3.122804 47.127749 -0.834757 -1.320325 -0.259097
-0.217948 -2.463274 45.249328 -0.823729 -1.337160 -0.262179
-0.510281 -2.227072 43.126279 -0.767363 -1.306530 -0.257313
-0.612259 -1.248730 40.658268 -0.820736 -1.274895 -0.268244
-1.363743 -0.675442 38.331079 -0.791150 -1.372967 -0.290591
-0.813320 -0.697701 37.522998 -0.661670 -1.311045 -0.296114
-0.990735 -0.055347 35.613377 -0.673568 -1.359957 -0.299040
-1.197828 0.989371 33.697593 -0.727158 -1.417195 -0.295548
-1.116443 1.020008 33.213920 -0.630456 -1.395941 -0.291414
-1.506125 1.286816 32.769439 -0.590034 -1.400238 -0.299720
-2.267512 1.824402 31.476632 -0.615566 -1.425411 -0.312139
-2.150987 2.193470 30.688970 -0.601204 -1.332358 -0.306569
-2.569003 1.924233 30.288510 -0.517268 -1.387181 -0.317613
-2.216935 1.840499 29.272971 -0.480047 -1.296772 -0.299835
-2.298365 1.655137 28.411077 -0.453161 -1.321219 -0.300889
-2.322626 1.275411 27.738782 -0.418611 -1.342409 -0.303795
-2.306484 1.098928 26.510521 -0.381017 -1.325848 -0.303643
-2.286567 1.328217 24.491719 -0.310966 -1.321337 -0.302271
-2.494728 1.348996 22.286673 -0.231734 -1.324518 -0.297052
-2.394442 1.044827 20.123645 -0.183434 -1.263130 -0.287863
-2.199051 0.404165 17.963609 -0.126589 -1.200816 -0.274003
-2.255303 -0.292626 16.221294 -0.011523 -1.231332 -0.270025
-1.690851 -0.357908 14.168293 0.039234 -1.132980 -0.238968
-1.629943 -0.001471 12.059756 0.017462 -1.156908 -0.236119
-1.380799 -0.525932 11.365331 0.082416 -1.053984 -0.212479
-1.496957 -0.649792 10.774700 0.070038 -0.979930 -0.190462
-1.652523 -0.499225 10.480684 0.044683 -0.963663 -0.184274
-1.553841 -0.413277 10.645312 0.027901 -0.863280 -0.163273
-1.647175 -0.438916 10.966834 0.037936 -0.841897 -0.158374
-1.499070 -0.348135 11.252061 0.027473 -0.784260 -0.148648
-1.372529 -0.381962 11.390067 0.027050 -0.713342 -0.135968
-1.422050 -0.640370 11.595684 0.046045 -0.704164 -0.136179
-1.481857 -0.756112 11.255890 0.007525 -0.637007 -0.114967
-1.645492 -0.915492 10.577544 -0.030274 -0.652582 -0.119100
-1.223809 -1.026766 10.235949 -0.010738 -0.578663 -0.108717
-1.239285 -0.943278 9.351979 0.026410 -0.627416 -0.115138
-1.303030 -0.749261 8.002499 0.041644 -0.651197 -0.114684
-1.393416 -0.893856 7.224670 0.088467 -0.650400 -0.116512
-1.344706 -1.349662 6.800508 0.146355 -0.635773 -0.114960
-0.932715 -1.563421 6.114178 0.167785 -0.557718 -0.099621
-1.180801 -1.334685 5.132733 0.145119 -0.639788 -0.110484
-1.145974 -1.372941 4.829584 0.172380 -0.654799 -0.112077
-1.150814 -1.366292 4.612563 0.189445 -0.652152 -0.111684
-1.046574 -0.976935 4.065224 0.130954 -0.631335 -0.110042
-1.237768 -0.712479 3.863647 0.081864 -0.626794 -0.102461
-1.039305 -1.015490 4.122235 0.113451 -0.597767 -0.098476
-1.355857 -1.018300 4.371914 0.102174 -0.610311 -0.095328
-1.436966 -1.125889 4.666784 0.106663 -0.641890 -0.104954
-1.149733 -1.176760 5.039659 0.101119 -0.574416 -0.094215
-1.043601 -1.375023 5.522528 0.121076 -0.583438 -0.102745
-1.532784 -1.210797 5.818415 0.096818 -0.639347 -0.104036
-1.337509 -1.147741 6.184064 0.085819 -0.622923 -0.094904
-1.315158 -1.072308 6.489370 0.062708 -0.633322 -0.084316
-0.989390 -1.083323 6.850572 0.028434 -0.616223 -0.083161
-1.094848 -1.269479 7.319637 0.005326 -0.632900 -0.085353
-1.024974 -1.541945 7.775754 0.020096 -0.616140 -0.084193
-1.115094 -1.745170 8.145408 0.041794 -0.638561 -0.089655
-1.028246 -1.831911 8.561443 0.049574 -0.619209 -0.087717
-0.906890 -1.899378 8.933305 0.052102 -0.602581 -0.086276
-0.881417 -2.139122 9.472998 0.073075 -0.607259 -0.087596
-1.105444 -2.220593 9.949777 0.067225 -0.633584 -0.088523
-1.179523 -2.266389 10.273090 0.049032 -0.649881 -0.089151
-1.284440 -2.229678 10.588095 0.022736 -0.682305 -0.088385
-1.042613 -2.179528 10.982150 0.010033 -0.677030 -0.085138
-0.772246 -2.170407 11.325491 0.000659 -0.650660 -0.077864
-0.779008 -2.227505 11.611079 -0.003998 -0.653192 -0.076538
-0.889364 -2.386478 11.910371 0.002180 -0.656224 -0.075031
-0.748601 -2.500673 12.174409 0.006176 -0.618187 -0.068869
-0.817593 -2.575729 12.378388 0.008289 -0.626725 -0.070414
-0.888977 -2.637089 12.688587 0.010766 -0.631648 -0.072257
-1.032908 -2.624123 12.893459 0.000207 -0.661683 -0.078095
-1.110081 -2.515286 13.136928 -0.021496 -0.686398 -0.082251
-1.053166 -2.515943 13.383940 -0.028226 -0.700304 -0.087098
-0.952821 -2.425081 13.792453 -0.038999 -0.703208 -0.091500
-0.867539 -2.341393 14.086536 -0.049786 -0.699153 -0.092940
-0.913796 -2.322439 14.498297 -0.053638 -0.702927 -0.094970
-0.914332 -2.358946 14.968566 -0.056896 -0.685781 -0.095153
-0.953321 -2.352207 15.496455 -0.074682 -0.682362 -0.099046
-1.014231 -2.340458 15.992810 -0.094477 -0.692665 -0.102991
-1.022601 -2.317943 16.594691 -0.102036 -0.703196 -0.106578
-1.052463 -2.200159 17.056527 -0.109346 -0.725225 -0.109155
-1.043890 -2.056354 17.459973 -0.118136 -0.731930 -0.113789
-1.048225 -2.056614 17.727362 -0.128419 -0.716892 -0.116865
-1.056413 -2.128538 18.026310 -0.139126 -0.694562 -0.118756
-1.062024 -2.205207 18.223746 -0.142374 -0.674902 -0.118528
-1.116675 -2.202554 18.361859 -0.144141 -0.676330 -0.120840
-1.119162 -2.158084 18.463212 -0.149166 -0.670170 -0.121437
-1.127807 -2.165884 18.611903 -0.151741 -0.672234 -0.123651
-1.122236 -2.216426 18.822299 -0.155379 -0.668790 -0.125531
-1.182328 -2.211279 19.042936 -0.166428 -0.680007 -0.129440
-1.219872 -2.200906 19.302796 -0.174147 -0.694583 -0.132334
-1.227998 -2.199105 19.683596 -0.180108 -0.702806 -0.134018
-1.182535 -2.227758 20.106378 -0.186409 -0.695731 -0.133841
-1.129786 -2.252954 20.490492 -0.203634 -0.678905 -0.128195
-1.130218 -2.256237 21.116552 -0.214289 -0.670496 -0.120595
-1.119850 -2.212075 21.532929 -0.226182 -0.653381 -0.111154
-1.152366 -2.120122 21.997087 -0.249590 -0.642864 -0.106302
-1.198862 -2.141368 22.555868 -0.270147 -0.637142 -0.105931
-1.214614 -2.208942 23.117903 -0.287265 -0.625810 -0.105027
-1.241516 -2.180730 23.657062 -0.305026 -0.631028 -0.106987
-1.217347 -2.190540 24.218127 -0.307787 -0.631967 -0.109046
-1.215039 -2.200452 24.798490 -0.308537 -0.636067 -0.111955
-1.233229 -2.293768 25.313736 -0.307206 -0.626431 -0.112264
-1.233997 -2.360951 25.757412 -0.313341 -0.611277 -0.112289
-1.255812 -2.417448 26.150055 -0.313328 -0.619776 -0.113796
-1.175420 -2.411992 26.352698 -0.324330 -0.619450 -0.113390
-1.172210 -2.365228 26.406216 -0.345167 -0.636096 -0.118984
-1.165667 -2.456112 26.496121 -0.337916 -0.650315 -0.124277
-1.075046 -2.443731 26.247329 -0.336044 -0.653844 -0.126142
-1.080006 -2.383101 26.048843 -0.337101 -0.678538 -0.130665
-1.049047 -2.449099 25.936437 -0.320296 -0.695379 -0.133929
-1.071347 -2.472157 25.645283 -0.309737 -0.723942 -0.139470
-1.129042 -2.338744 25.242470 -0.323508 -0.749696 -0.145056
-1.242448 -2.331727 24.983735 -0.321481 -0.775774 -0.152301
-1.340023 -2.285400 24.612871 -0.333359 -0.788962 -0.159938
-1.411371 -2.138016 24.242821 -0.360040 -0.793628 -0.162971
-1.408689 -1.997087 23.809460 -0.370414 -0.791057 -0.165689
-1.361404 -1.773429 23.297366 -0.368652 -0.792020 -0.167065
-1.319878 -1.486068 22.749640 -0.375516 -0.785015 -0.166065
-1.332226 -1.421479 22.400903 -0.365360 -0.783244 -0.166079
-1.344666 -1.414150 22.078769 -0.354357 -0.777651 -0.165998
-1.403271 -1.351037 21.708113 -0.352312 -0.775714 -0.165653
-1.450105 -1.275845 21.262924 -0.349142 -0.775834 -0.166104
-1.458908 -1.228562 20.872253 -0.340810 -0.776481 -0.166700
-1.460172 -1.160504 20.432950 -0.334311 -0.775999 -0.166193
-1.389930 -1.008763 19.855603 -0.339196 -0.776071 -0.164937
-1.307186 -0.893109 19.268191 -0.332713 -0.782154 -0.163335
-1.283162 -0.890383 18.715007 -0.314109 -0.794908 -0.161851
-1.249485 -0.822752 18.055244 -0.309314 -0.796866 -0.158248
-1.240096 -0.842474 17.325228 -0.288092 -0.806174 -0.152474
-1.237786 -0.918830 16.716255 -0.262644 -0.814168 -0.147401
-1.294117 -0.967276 15.690826 -0.252775 -0.821106 -0.144712
-1.388408 -0.980272 14.722632 -0.231481 -0.835775 -0.147054
-1.400281 -1.055893 13.892372 -0.180455 -0.849081 -0.154659
-1.407379 -1.018972 12.709051 -0.161873 -0.853781 -0.164448
-1.471211 -0.867871 11.431169 -0.164266 -0.876198 -0.173983
-1.385937 -0.928771 10.592256 -0.113244 -0.887730 -0.166861
-1.277274 -1.012246 9.913712 -0.046046 -0.915189 -0.166851
-1.216624 -1.004806 8.904460 -0.022614 -0.911595 -0.166958
-1.381753 -0.810055 7.810298 -0.045578 -0.918207 -0.173953
-1.527094 -1.113170 7.503599 0.012401 -0.910575 -0.179040
-1.513678 -1.238616 7.209502 0.058465 -0.880364 -0.175705
-1.537196 -0.684942 6.266193 0.010265 -0.868967 -0.169729
-1.557873 -0.657275 6.029218 0.021096 -0.850509 -0.159546
-1.290326 -0.850017 6.378014 0.048821 -0.789789 -0.146237
-1.338100 -0.646133 6.401278 0.023815 -0.788090 -0.140858
-1.249054 -0.578277 6.527970 0.023029 -0.738894 -0.127062
-1.110218 -0.650620 7.101242 0.049315 -0.698372 -0.118555
-1.119806 -0.741535 7.839655 0.049062 -0.661018 -0.106144
-1.156767 -0.858226 8.454436 0.005588 -0.610046 -0.095147
-1.238172 -0.935617 9.346732 -0.051333 -0.611056 -0.093097
-1.062285 -1.139428 10.612934 -0.057076 -0.599033 -0.084176
-0.872786 -1.281341 12.078839 -0.044631 -0.618155 -0.083138
-0.766249 -1.107740 13.456518 -0.089411 -0.616178 -0.075582
-0.804296 -1.616742 15.318951 -0.062718 -0.631344 -0.074399
-0.695022 -1.641915 16.523245 -0.125790 -0.581817 -0.068307
-0.992514 -1.787070 18.100610 -0.158005 -0.584804 -0.075780
-0.969395 -2.268077 19.965946 -0.133901 -0.519182 -0.073678
-1.169446 -2.154224 21.137927 -0.216772 -0.493017 -0.074845
-1.177843 -2.536685 22.176096 -0.253513 -0.440717 -0.068632
-1.026951 -2.680279 22.692483 -0.270784 -0.406883 -0.068745
-1.121526 -3.151785 23.672440 -0.245717 -0.422671 -0.076848
-1.115246 -3.485956 24.159566 -0.249124 -0.435699 -0.084275
-1.116365 -3.559680 24.391718 -0.284084 -0.451362 -0.085825
-1.128430 -3.851122 24.864547 -0.254081 -0.507135 -0.091772
-1.019173 -3.917699 25.218600 -0.219464 -0.517064 -0.087813
-0.969439 -3.673174 25.281171 -0.233890 -0.511427 -0.087491
-1.118739 -3.648567 25.512043 -0.232908 -0.508822 -0.088048
-1.042437 -3.628343 25.775456 -0.226907 -0.482826 -0.089074
-0.951213 -3.395827 25.760539 -0.240523 -0.478496 -0.092360
-0.933524 -3.254920 25.948118 -0.244101 -0.503529 -0.097490
-0.856627 -3.213864 26.173632 -0.262333 -0.521973 -0.100599
-0.847277 -3.199516 26.509970 -0.297955 -0.557791 -0.107104
-0.889421 -3.046187 27.153600 -0.335372 -0.599974 -0.117530
-0.901715 -2.867344 27.600210 -0.345351 -0.618034 -0.122479
-1.064148 -2.634115 28.093861 -0.364850 -0.652385 -0.130365
-1.148557 -2.428807 28.804560 -0.409132 -0.651099 -0.133326
-1.123621 -2.468010 29.656584 -0.419946 -0.637650 -0.133814
-1.047841 -2.381521 30.487560 -0.424147 -0.632256 -0.134200
-1.063752 -2.132156 31.325455 -0.449768 -0.636008 -0.135121
-1.147350 -2.099091 32.211710 -0.450604 -0.644499 -0.138915
-1.206525 -2.104080 33.087793 -0.455285 -0.648119 -0.143836
-1.310745 -1.970937 33.786900 -0.484916 -0.656439 -0.148566
-1.421491 -2.140137 34.763982 -0.469468 -0.682582 -0.155559
-1.443641 -2.223599 35.402460 -0.464244 -0.694110 -0.155288
-1.362511 -2.131326 35.710107 -0.484744 -0.713385 -0.156530
-1.188256 -2.170386 36.145564 -0.487346 -0.702454 -0.152938
-1.089728 -2.347414 36.592179 -0.479674 -0.699866 -0.154771
-1.182632 -2.314338 36.781507 -0.506880 -0.701774 -0.156099
-1.180722 -2.287779 36.948591 -0.524605 -0.703853 -0.157277
-1.068513 -2.444965 37.465559 -0.506062 -0.714159 -0.156983
-1.029651 -2.462392 37.856131 -0.512885 -0.747166 -0.158010
-0.972599 -2.453933 38.104065 -0.535401 -0.771187 -0.158257
-1.077177 -2.615053 38.724493 -0.530439 -0.822079 -0.167101
-1.100915 -2.705749 39.221657 -0.529352 -0.831425 -0.169067
-1.175037 -2.695946 39.704506 -0.544291 -0.860850 -0.175927
-1.099420 -2.617551 39.836172 -0.569870 -0.838212 -0.171716
-1.175782 -2.634984 40.043132 -0.577616 -0.853088 -0.175331
-1.105354 -2.682116 40.151775 -0.578464 -0.820807 -0.168965
-1.088660 -2.663732 40.060776 -0.583593 -0.821125 -0.172997
-1.079937 -2.637585 39.842856 -0.583573 -0.821656 -0.174882
-1.042769 -2.566406 39.541280 -0.580650 -0.831737 -0.177757
-1.138744 -2.543522 39.279235 -0.567452 -0.859466 -0.179998
-1.186143 -2.534823 38.919370 -0.547609 -0.895104 -0.185704
-1.042004 -2.350094 38.077360 -0.556726 -0.888173 -0.183222
-1.035991 -2.333179 37.785886 -0.549987 -0.906175 -0.186712
-1.114920 -2.366321 37.244006 -0.545566 -0.931876 -0.192439
-1.008265 -2.252683 36.322367 -0.572479 -0.900730 -0.191862
-1.234634 -2.072497 35.282929 -0.570544 -0.927738 -0.199713
-1.182113 -1.554257 33.764344 -0.557709 -0.900398 -0.198819
-1.295920 -1.127937 31.979983 -0.548407 -0.903310 -0.199761
-1.502670 -1.015577 30.354732 -0.537467 -0.912718 -0.198299
-1.557894 -0.954798 28.779707 -0.514701 -0.919595 -0.198706
-1.466834 -0.786357 27.001247 -0.469052 -0.932344 -0.202210
-1.365628 -0.584193 25.552066 -0.422773 -0.958386 -0.204262
-1.409169 -0.396512 23.999347 -0.408517 -1.014841 -0.213274
-1.444937 -0.313684 22.845200 -0.385411 -1.053926 -0.216542
-1.389105 -0.288053 21.857328 -0.344669 -1.071082 -0.211063
-1.326984 0.212812 20.731736 -0.359047 -1.075351 -0.203063
-1.336640 0.341784 19.910376 -0.335954 -1.076730 -0.198609
-1.373998 0.260043 19.372768 -0.304986 -1.050105 -0.192341
-1.480073 0.396911 18.416295 -0.320246 -1.034774 -0.190048
-1.567366 0.297971 17.796684 -0.283874 -1.004183 -0.181985
-1.565046 0.227634 17.239163 -0.248327 -0.970327 -0.175699
-1.816308 0.187734 16.481645 -0.230087 -0.981921 -0.174811
-1.760525 0.148302 15.552894 -0.228069 -0.948262 -0.168988
-1.769728 0.124033 14.722689 -0.208706 -0.960674 -0.171675
-1.796198 0.073944 13.885509 -0.163618 -0.979529 -0.174189
-1.614690 -0.131980 12.780473 -0.112197 -0.943109 -0.166704
-1.722318 -0.067411 11.198785 -0.114823 -0.925438 -0.161884
-1.792956 -0.432212 10.251889 -0.058036 -0.886740 -0.156360
-1.665329 -0.773943 9.255190 -0.001123 -0.796995 -0.143483
-1.710661 -0.588243 7.832936 -0.005683 -0.780236 -0.145713
-1.693305 -0.760174 7.111712 0.049179 -0.763512 -0.140227
-1.434883 -1.094786 6.336138 0.113655 -0.736557 -0.134175
-1.388271 -0.566017 4.979937 0.052189 -0.747458 -0.130834
-1.266157 -0.840507 4.534030 0.111143 -0.739397 -0.123302
-1.082088 -1.030835 4.194762 0.159427 -0.717919 -0.119268
-1.317557 -0.729412 3.460982 0.135477 -0.743116 -0.122975
-1.313850 -0.805091 3.227541 0.159877 -0.706853 -0.117746
-1.363012 -1.015186 3.209918 0.195316 -0.694325 -0.117893
-1.288976 -0.879123 2.976075 0.165681 -0.651436 -0.111004
-1.370226 -0.792765 2.899421 0.143468 -0.647342 -0.106012
-1.475814 -0.951420 3.273416 0.160584 -0.649424 -0.102816
-1.302181 -0.849639 3.337564 0.134488 -0.627636 -0.102763
-1.396034 -0.709156 3.529606 0.100192 -0.640531 -0.103770
-1.235351 -0.733178 3.722792 0.088526 -0.626724 -0.101958
-1.518997 -0.697032 4.031060 0.077030 -0.672685 -0.103570
-1.326147 -0.774089 4.216084 0.081855 -0.641058 -0.092443
-1.234475 -0.952359 4.524748 0.101761 -0.631328 -0.081613
-1.230495 -1.096790 4.635935 0.115264 -0.621024 -0.077758
-1.112029 -1.328073 4.698625 0.133656 -0.582280 -0.074122
-1.244964 -1.540081 4.812689 0.147507 -0.597799 -0.078766
-1.161375 -1.644294 4.875590 0.145420 -0.588250 -0.079417
-1.104901 -1.650233 4.889208 0.136322 -0.598461 -0.081926
-1.099036 -1.643370 4.942176 0.131967 -0.617772 -0.083477
-1.006716 -1.579738 4.942252 0.131387 -0.620021 -0.080516
-0.986918 -1.589377 5.023391 0.148066 -0.641675 -0.081592
-0.938701 -1.614677 5.098069 0.158484 -0.635936 -0.080037
-0.939407 -1.701686 5.128283 0.162241 -0.622471 -0.080506
-1.081955 -1.830297 5.212978 0.168577 -0.616713 -0.081397
-1.108893 -1.890350 5.321148 0.172345 -0.606011 -0.082397
-1.085245 -1.865471 5.365339 0.168656 -0.608556 -0.083703
-1.052575 -1.732803 5.396430 0.151381 -0.619209 -0.085743
-1.075793 -1.688618 5.498054 0.145452 -0.641510 -0.089335
-1.090138 -1.641412 5.583466 0.136164 -0.649076 -0.091787
-1.121957 -1.610422 5.616103 0.126309 -0.656888 -0.095329
-1.146613 -1.688653 5.697200 0.131703 -0.656386 -0.097383
-1.148074 -1.767608 5.781517 0.137842 -0.650707 -0.098027
-1.207999 -1.831031 5.797171 0.142941 -0.657784 -0.098943
-1.213328 -1.862496 5.830117 0.146495 -0.660535 -0.098697
-1.182649 -1.889965 5.887728 0.150181 -0.665167 -0.100243
-1.181291 -1.885021 5.850111 0.147281 -0.670104 -0.101872
-1.209355 -1.830851 5.779551 0.140137 -0.674755 -0.103184
-1.229268 -1.786567 5.648693 0.135804 -0.674440 -0.103719
-1.271773 -1.766150 5.531835 0.139554 -0.678240 -0.105182
-1.300533 -1.708241 5.279614 0.134146 -0.676919 -0.105908
-1.322807 -1.702529 5.028481 0.128966 -0.672227 -0.107184
-1.337863 -1.719112 4.761824 0.128280 -0.668143 -0.108480
-1.346211 -1.713110 4.559554 0.133309 -0.668740 -0.109281
-1.329558 -1.673736 4.318338 0.136254 -0.667405 -0.109248
-1.329812 -1.570827 3.996005 0.132960 -0.673567 -0.110984
-1.342815 -1.503146 3.722317 0.131124 -0.675319 -0.111947
-1.353798 -1.531559 3.511185 0.140421 -0.674793 -0.112862
-1.380552 -1.484681 3.267221 0.144712 -0.675314 -0.113272
-1.384928 -1.404465 2.851483 0.145712 -0.672753 -0.111267
-1.383095 -1.327034 2.526905 0.147877 -0.670737 -0.109832
-1.354846 -1.372325 2.338138 0.164539 -0.663192 -0.108103
-1.308977 -1.371427 2.173174 0.176035 -0.651279 -0.106496
-1.298776 -1.282201 1.863250 0.178158 -0.652135 -0.106827
-1.265658 -1.309817 1.753861 0.196092 -0.649494 -0.104610
-1.247455 -1.259012 1.600215 0.195129 -0.647631 -0.103172
-1.281822 -1.226061 1.517459 0.191737 -0.652182 -0.103940
-1.268984 -1.227385 1.474315 0.193565 -0.645228 -0.103292
-1.280275 -1.250214 1.457339 0.200702 -0.642150 -0.103074
-1.298376 -1.224572 1.393258 0.198800 -0.639290 -0.101601
-1.315158 -1.188620 1.322130 0.193672 -0.635181 -0.100166
-1.326142 -1.231276 1.309646 0.196423 -0.625596 -0.098287
-1.319150 -1.295740 1.339061 0.198849 -0.610835 -0.097192
-1.302992 -1.344558 1.278954 0.196912 -0.590687 -0.094986
-1.336286 -1.346318 1.273807 0.196026 -0.590094 -0.095518
-1.343898 -1.388223 1.228126 0.201902 -0.585838 -0.095256
-1.339045 -1.375304 1.216203 0.204681 -0.582752 -0.095285
-1.352006 -1.343859 1.138623 0.202018 -0.585149 -0.095762
-1.353419 -1.287766 1.002938 0.190007 -0.580500 -0.093737
-1.364880 -1.359496 1.022460 0.196578 -0.580282 -0.092555
-1.298782 -1.335755 0.942578 0.192031 -0.568042 -0.089323
-1.249574 -1.329324 0.870567 0.196659 -0.564473 -0.087176
-1.205767 -1.348622 0.873472 0.206508 -0.561028 -0.084824
-1.137788 -1.351124 0.812409 0.205784 -0.550944 -0.082494
-1.183938 -1.335936 0.772275 0.199020 -0.556761 -0.082578
-1.240952 -1.339229 0.807836 0.193427 -0.563908 -0.083130
-1.207160 -1.363246 0.845929 0.191131 -0.557734 -0.083152
-1.277274 -1.347585 0.865726 0.187172 -0.571251 -0.086654
-1.274114 -1.336029 0.879930 0.185830 -0.570741 -0.086352
-1.250771 -1.343539 0.951267 0.188613 -0.570447 -0.086707
-1.225073 -1.361442 0.966267 0.190457 -0.566266 -0.087760
-1.240674 -1.366267 1.004158 0.188663 -0.565484 -0.088838
-1.230258 -1.386184 1.033502 0.186852 -0.556943 -0.088467
-1.275966 -1.402506 1.039828 0.186409 -0.564749 -0.090687
-1.300796 -1.388229 1.037213 0.183935 -0.569663 -0.091625
-1.306824 -1.345838 1.020830 0.179140 -0.576081 -0.093001
-1.318172 -1.361798 1.051678 0.183245 -0.585472 -0.095894
-1.321559 -1.348147 1.051672 0.182220 -0.590650 -0.096635
-1.280353 -1.358547 1.104554 0.183402 -0.582781 -0.094321
-1.267081 -1.383490 1.175745 0.185953 -0.582058 -0.092576
-1.224833 -1.396701 1.221979 0.184948 -0.571489 -0.090118
-1.235177 -1.399597 1.302109 0.180353 -0.565071 -0.089479
-1.258669 -1.422791 1.395211 0.178716 -0.559830 -0.089272
-1.281758 -1.455793 1.580533 0.178953 -0.562619 -0.090748
-1.286259 -1.497391 1.792951 0.177541 -0.562813 -0.091630
-1.266066 -1.369479 1.923166 0.147702 -0.566232 -0.092411
-1.261653 -1.457441 2.297620 0.149446 -0.581170 -0.094098
-1.139175 -1.454819 2.619534 0.139331 -0.568864 -0.091487
-1.138795 -1.392031 2.853582 0.122847 -0.581345 -0.094369
-1.129252 -1.418164 3.144099 0.120074 -0.581913 -0.095742
-1.130382 -1.530825 3.525711 0.131902 -0.578381 -0.098680
-1.222513 -1.576645 3.842375 0.132182 -0.585548 -0.104572
-1.251480 -1.623878 4.070703 0.121854 -0.577291 -0.108380
-1.308817 -1.691161 4.256587 0.114926 -0.577639 -0.111103
-1.321147 -1.733551 4.402995 0.097198 -0.567487 -0.111218
-1.353838 -1.771575 4.493759 0.084867 -0.573849 -0.113182
-1.323491 -1.786208 4.494466 0.081098 -0.577343 -0.113431
-1.286196 -1.789908 4.532153 0.082808 -0.576373 -0.112085
-1.273570 -1.860698 4.561153 0.097697 -0.585399 -0.112549
-1.254094 -1.816203 4.482355 0.094192 -0.588024 -0.111916
-1.260310 -1.783963 4.418997 0.092062 -0.592600 -0.110939
-1.266736 -1.794791 4.424768 0.095471 -0.597229 -0.110740
-1.259667 -1.755674 4.403576 0.091348 -0.595639 -0.109322
-1.234190 -1.707207 4.360236 0.084097 -0.587354 -0.106371
-1.197304 -1.681593 4.340381 0.078339 -0.574542 -0.102201
-1.177009 -1.638866 4.321839 0.068427 -0.568312 -0.099749
-1.192398 -1.617739 4.414972 0.062313 -0.569021 -0.099151
-1.152009 -1.620199 4.503614 0.062358 -0.564942 -0.097180
-1.138591 -1.554482 4.650503 0.058801 -0.575223 -0.097835
-1.165406 -1.506959 4.807972 0.050199 -0.585610 -0.096704
-1.127343 -1.560960 5.226252 0.047185 -0.585899 -0.096407
-1.154144 -1.570420 5.794127 0.034909 -0.592989 -0.096083
-1.074966 -1.510919 6.329252 0.019517 -0.585118 -0.093852
-0.980292 -1.396698 6.976978 0.001627 -0.579250 -0.090561
-0.980329 -1.349262 7.760632 -0.011329 -0.581782 -0.089725
-0.971301 -1.265645 8.643410 -0.044736 -0.560963 -0.090025
-1.074699 -1.388556 9.798067 -0.066382 -0.537114 -0.093223
-1.086031 -1.424277 10.895858 -0.098922 -0.489143 -0.091903
-1.178062 -1.382488 12.108327 -0.125380 -0.467756 -0.090717
-1.181909 -1.566304 13.494546 -0.123962 -0.427337 -0.082162
-1.156650 -1.450773 14.499114 -0.184211 -0.385371 -0.075567
-1.217258 -1.405419 15.236554 -0.234434 -0.377209 -0.076803
-1.245957 -1.873564 16.832687 -0.195666 -0.389396 -0.084658
-1.149748 -1.923881 17.316061 -0.220797 -0.373901 -0.084191
-1.282105 -1.701085 17.776249 -0.279774 -0.400423 -0.084831
-1.195731 -2.178537 18.572966 -0.244868 -0.377192 -0.077827
-1.105527 -2.295156 18.784068 -0.257335 -0.360023 -0.075374
-1.246048 -2.411339 18.795472 -0.269854 -0.378152 -0.076376
-1.108555 -2.801209 19.368443 -0.230309 -0.363492 -0.077283
-0.994006 -2.910900 19.863377 -0.224485 -0.372232 -0.081062
-1.014454 -2.601240 19.907884 -0.280981 -0.393587 -0.079551
-0.928289 -2.560041 20.586995 -0.303624 -0.391788 -0.077781
-0.963695 -2.836414 21.412275 -0.308719 -0.388509 -0.076236
-1.068541 -2.933144 22.506660 -0.334201 -0.399774 -0.075139
-1.018111 -2.847563 23.199511 -0.375213 -0.384071 -0.069627
-0.969711 -2.676162 24.009447 -0.427172 -0.387115 -0.073275
-1.085966 -3.002744 25.772827 -0.409983 -0.397310 -0.077228
-0.848321 -2.874438 27.355271 -0.471355 -0.355444 -0.069468
-0.920705 -2.665569 28.247457 -0.513339 -0.376871 -0.069066
-0.847319 -2.710530 29.731499 -0.525861 -0.363530 -0.062636
-0.877963 -2.625236 30.705526 -0.574716 -0.363100 -0.063399
-1.049164 -3.030205 32.428981 -0.546098 -0.391962 -0.070939
-0.926549 -3.100276 33.471853 -0.552124 -0.399691 -0.074926
-0.880858 -3.083912 34.125339 -0.567950 -0.440605 -0.081028
-0.894091 -3.117232 34.591233 -0.584268 -0.472689 -0.085574
-1.048315 -3.312365 35.227096 -0.573722 -0.518521 -0.097149
-0.973202 -3.335503 35.189257 -0.579860 -0.523445 -0.102898
-1.007867 -3.297856 34.935097 -0.589997 -0.556758 -0.113675
-0.901442 -3.346348 34.633872 -0.579732 -0.592038 -0.124003
-0.701901 -3.308188 34.216121 -0.567310 -0.629726 -0.130881
-0.770854 -3.134187 33.895666 -0.573388 -0.690792 -0.136914
-0.867315 -2.956639 33.618642 -0.581660 -0.735819 -0.145867
-0.943937 -2.773110 33.507610 -0.566694 -0.742243 -0.151875
-1.196909 -2.334745 33.438904 -0.570461 -0.781329 -0.163608
-1.315083 -2.013701 33.381626 -0.596341 -0.804134 -0.170236
-1.341437 -2.028063 33.493392 -0.626227 -0.810546 -0.175656
-1.322716 -1.986044 33.717693 -0.640292 -0.806714 -0.175749
-1.199243 -1.636015 33.651730 -0.650819 -0.783249 -0.173383
-1.239014 -1.412489 33.658262 -0.667614 -0.766603 -0.174860
-1.448047 -1.505518 33.729382 -0.674372 -0.769937 -0.178797
-1.478033 -1.595013 33.782897 -0.664111 -0.769751 -0.179395
-1.512325 -1.495267 33.598863 -0.656202 -0.804874 -0.182051
-1.494199 -1.371639 33.339042 -0.647817 -0.833709 -0.183044
-1.502874 -1.420495 33.230760 -0.620518 -0.855664 -0.185665
-1.480780 -1.444012 33.002755 -0.607770 -0.837825 -0.181629
-1.463839 -1.398646 32.710584 -0.608351 -0.816570 -0.176966
-1.413815 -1.441889 32.598007 -0.596639 -0.793856 -0.171616
-1.311563 -1.423778 32.582057 -0.593994 -0.766546 -0.166494
-1.316845 -1.367868 32.541163 -0.598146 -0.765670 -0.166434
-1.298319 -1.304812 32.474664 -0.603736 -0.757320 -0.164711
-1.288931 -1.295629 32.426624 -0.604121 -0.754843 -0.164520
-1.341786 -1.365855 32.397382 -0.593637 -0.764534 -0.164646
-1.358729 -1.419845 32.314627 -0.585040 -0.775935 -0.164015
-1.347550 -1.408279 32.154664 -0.585637 -0.785746 -0.162887
-1.313618 -1.443738 32.054133 -0.579531 -0.790400 -0.162481
-1.251724 -1.491688 31.986563 -0.572460 -0.778145 -0.159931
-1.220297 -1.438554 31.837977 -0.581717 -0.758121 -0.155865
-1.216858 -1.452564 31.783443 -0.580465 -0.743488 -0.151649
-1.208595 -1.454098 31.777659 -0.580847 -0.730576 -0.147883
-1.209294 -1.423506 31.747851 -0.586660 -0.720602 -0.145155
-1.228671 -1.394325 31.743413 -0.591376 -0.721969 -0.144978
-1.253715 -1.440592 31.845658 -0.580680 -0.728387 -0.146290
-1.283259 -1.469398 31.964025 -0.572161 -0.739776 -0.148402
-1.282797 -1.465095 32.040555 -0.575127 -0.738016 -0.147556
-1.281329 -1.555544 32.259607 -0.570555 -0.741287 -0.148498
-1.252031 -1.611038 32.486588 -0.571960 -0.731595 -0.146106
-1.229291 -1.597758 32.723410 -0.574077 -0.726819 -0.145445
-1.212717 -1.579253 32.876834 -0.571501 -0.721665 -0.144516
-1.207295 -1.545960 32.980244 -0.572448 -0.717215 -0.145516
-1.215350 -1.516145 32.907477 -0.576982 -0.718294 -0.148403
-1.260260 -1.565243 32.834508 -0.568514 -0.729200 -0.151893
-1.265963 -1.605100 32.619806 -0.556946 -0.739442 -0.154568
-1.253451 -1.613334 32.283880 -0.545582 -0.753610 -0.156296
-1.199246 -1.663457 31.926632 -0.531577 -0.767517 -0.157756
-1.166881 -1.719634 31.719441 -0.515390 -0.784973 -0.160573
-1.157733 -1.698700 31.412177 -0.518460 -0.789056 -0.158800
-1.168461 -1.530792 30.980852 -0.548273 -0.784778 -0.154940
-1.188057 -1.549807 30.810820 -0.549171 -0.777685 -0.149720
-1.177667 -1.546128 30.672346 -0.549411 -0.768446 -0.145460
-1.184908 -1.420044 30.471584 -0.556019 -0.763121 -0.141744
-1.202142 -1.392993 30.393195 -0.541553 -0.766123 -0.141294
-1.181645 -1.401166 30.419406 -0.526435 -0.761552 -0.140299
-1.203215 -1.407576 30.437756 -0.518297 -0.763862 -0.140946
-1.215884 -1.442691 30.426989 -0.510908 -0.764731 -0.140342
-1.221782 -1.461266 30.404976 -0.507174 -0.763908 -0.140018
-1.252902 -1.452824 30.333508 -0.507925 -0.768869 -0.140527
-1.260312 -1.438028 30.214984 -0.511357 -0.770503 -0.141041
-1.257195 -1.449125 30.106688 -0.510596 -0.769997 -0.141713
-1.250633 -1.457600 29.982347 -0.509844 -0.766778 -0.142081
-1.253652 -1.446866 29.809607 -0.511090 -0.763365 -0.142928
-1.279444 -1.437851 29.633705 -0.508774 -0.769456 -0.145201
-1.295935 -1.402755 29.446185 -0.506817 -0.772699 -0.146557
-1.304241 -1.347931 29.244001 -0.505963 -0.776336 -0.148022
-1.309562 -1.320594 29.118783 -0.502315 -0.781867 -0.149061
-1.312831 -1.317778 29.032003 -0.499650 -0.786285 -0.148730
-1.305224 -1.330279 29.032239 -0.497022 -0.788478 -0.148034
-1.287738 -1.335811 29.059449 -0.500317 -0.783276 -0.144671
-1.284168 -1.362456 29.241985 -0.504403 -0.779557 -0.142641
-1.246332 -1.258166 29.450429 -0.523611 -0.770395 -0.141940
-1.237692 -1.287851 29.790941 -0.516024 -0.769744 -0.141695
-1.141299 -1.269609 30.134215 -0.508385 -0.758887 -0.138693
-1.118577 -1.278203 30.513343 -0.495342 -0.762797 -0.138586
-1.117681 -1.329387 30.911188 -0.484556 -0.760903 -0.138312
-1.152863 -1.458437 31.441351 -0.480539 -0.750863 -0.138322
-1.202962 -1.690758 32.174959 -0.496081 -0.727626 -0.137219
-1.303219 -1.910641 33.041725 -0.519882 -0.709290 -0.135644
-1.300476 -1.987298 33.860810 -0.542196 -0.682392 -0.133069
-1.312709 -2.046855 34.903205 -0.569414 -0.668970 -0.135641
-1.385526 -2.208820 35.754252 -0.576117 -0.676466 -0.142900
-1.341882 -2.494353 36.883431 -0.573356 -0.643025 -0.142440
-1.449618 -2.533076 37.586390 -0.601506 -0.631227 -0.142792
-1.511874 -2.417160 38.079337 -0.644733 -0.619008 -0.142738
-1.457026 -2.630490 38.780910 -0.627167 -0.610907 -0.141060
-1.374815 -2.657282 39.152553 -0.633913 -0.640035 -0.146256
-1.227396 -2.566925 39.025113 -0.650782 -0.658460 -0.148443
-1.133871 -2.701679 39.069870 -0.629243 -0.678402 -0.150792
-1.090424 -2.875225 39.123743 -0.599329 -0.686714 -0.152538
-1.079391 -2.819832 38.887087 -0.600682 -0.698788 -0.152937
-0.995867 -2.769240 38.691582 -0.599124 -0.721270 -0.156071
-0.936937 -2.734063 38.763514 -0.593494 -0.752009 -0.159109
-0.919040 -2.565681 38.756844 -0.597496 -0.789459 -0.163193
-0.963202 -2.241412 38.899668 -0.622159 -0.811289 -0.166788
-1.017882 -2.121847 39.141617 -0.648288 -0.818640 -0.168370
-0.993525 -2.198676 39.573359 -0.659937 -0.818245 -0.168595
-0.989765 -2.171492 39.882765 -0.674114 -0.831077 -0.169366
-1.022533 -2.030606 40.167885 -0.682884 -0.850817 -0.171925
-1.014937 -1.953334 40.406745 -0.683451 -0.853397 -0.175558
-1.099920 -1.982425 40.572664 -0.683138 -0.865747 -0.182621
-1.101778 -1.998144 40.629435 -0.681967 -0.861588 -0.184489
-1.130069 -1.977889 40.670626 -0.675591 -0.873891 -0.186156
-1.160241 -1.918394 40.645006 -0.677782 -0.886916 -0.186261
-1.206548 -1.905843 40.689976 -0.678473 -0.901259 -0.187356
-1.142940 -1.934874 40.780555 -0.673256 -0.897120 -0.186894
-1.183505 -1.906941 40.813327 -0.671361 -0.910991 -0.190890
-1.224951 -1.842952 40.815899 -0.671771 -0.915776 -0.194851
-1.229644 -1.817713 40.776038 -0.668062 -0.917078 -0.197615
-1.265957 -1.736622 40.603970 -0.673264 -0.925108 -0.199724
-1.261771 -1.695823 40.369684 -0.675640 -0.924271 -0.199078
-1.157981 -1.675932 39.977576 -0.669947 -0.907168 -0.195804
-1.112673 -1.773359 39.692782 -0.640418 -0.912908 -0.196793
-1.116179 -1.700348 39.198828 -0.636719 -0.917553 -0.196245
-1.190894 -1.667744 38.730774 -0.632075 -0.929076 -0.199763
-1.127465 -1.688757 38.267905 -0.629423 -0.899727 -0.195692
-1.279165 -1.642479 37.682076 -0.639386 -0.913672 -0.197449
-1.194268 -1.531822 37.033293 -0.653685 -0.896635 -0.197007
-1.206057 -1.383633 36.489068 -0.641820 -0.910716 -0.203399
-1.210923 -1.160165 35.892546 -0.628819 -0.915713 -0.209347
-1.269418 -0.922683 35.373061 -0.628048 -0.907795 -0.212340
-1.375345 -0.792621 34.939945 -0.626389 -0.897819 -0.211553
-1.382752 -0.675771 34.461010 -0.626867 -0.885413 -0.210193
-1.489331 -0.630034 33.982540 -0.615677 -0.899877 -0.210066
-1.447306 -0.622903 33.463923 -0.599184 -0.897896 -0.205611
-1.398291 -0.610424 33.069331 -0.590819 -0.902111 -0.203637
-1.300012 -0.572590 32.598158 -0.577220 -0.897430 -0.202021
-1.246402 -0.584131 32.128817 -0.558962 -0.896317 -0.202541
-1.269111 -0.612387 31.843225 -0.549982 -0.893809 -0.203043
-1.307058 -0.649277 31.453101 -0.540203 -0.890879 -0.202400
-1.353270 -0.661257 31.064445 -0.530699 -0.892698 -0.202386
-1.356316 -0.733208 30.654314 -0.518067 -0.886608 -0.200640
-1.392186 -0.833415 30.173561 -0.501872 -0.882601 -0.200010
-1.441629 -0.844833 29.476968 -0.495740 -0.871929 -0.199715
-1.488410 -0.939488 28.869030 -0.483244 -0.863615 -0.197316
-1.440352 -0.992806 28.214254 -0.472840 -0.863632 -0.191914
-1.342638 -0.929323 27.570808 -0.465229 -0.882953 -0.186276
-1.254401 -0.873916 27.051506 -0.455635 -0.901032 -0.178706
-1.202412 -0.842238 26.770478 -0.450173 -0.915121 -0.174452
-1.234380 -0.871508 26.658278 -0.443859 -0.930435 -0.174933
-1.158954 -0.899506 26.683335 -0.441856 -0.915860 -0.171715
-1.254192 -0.943847 26.731848 -0.441995 -0.921245 -0.171785
-1.367342 -1.002102 26.861984 -0.440881 -0.895664 -0.165484
-1.405853 -1.088199 27.017828 -0.434604 -0.868427 -0.161501
-1.430625 -1.082978 27.129120 -0.439041 -0.851291 -0.156773
-1.331228 -1.057580 27.159615 -0.445322 -0.831880 -0.153047
-1.410660 -1.125786 27.296870 -0.439486 -0.848504 -0.155569
-1.422677 -1.224889 27.298429 -0.438075 -0.841721 -0.154891
-1.457423 -1.337181 27.370154 -0.432746 -0.849440 -0.157042
-1.388930 -1.510165 27.553572 -0.416374 -0.833889 -0.153186
-1.304909 -1.583042 27.690170 -0.409918 -0.818260 -0.149881
-1.386009 -1.580486 27.811981 -0.410141 -0.831675 -0.149896
-1.339103 -1.612842 27.998200 -0.403952 -0.821360 -0.146521
-1.285191 -1.666483 28.217906 -0.395128 -0.810413 -0.143679
-1.243359 -1.623390 28.350867 -0.399288 -0.799613 -0.141298
-1.212204 -1.624260 28.521840 -0.399016 -0.785970 -0.139195
-1.268037 -1.693828 28.766331 -0.389127 -0.784806 -0.137752
-1.288637 -1.712550 28.977846 -0.387767 -0.779994 -0.135601
-1.261512 -1.805230 29.262988 -0.375767 -0.774934 -0.133394
-1.193560 -1.925930 29.590758 -0.363154 -0.767717 -0.130874
-1.183709 -2.023368 29.930814 -0.363545 -0.770884 -0.130028
-1.207191 -2.127101 30.313186 -0.365397 -0.778000 -0.130104
-1.225923 -2.222829 30.749146 -0.369874 -0.785771 -0.131389
-1.219642 -2.220700 31.064818 -0.388963 -0.782524 -0.132102
-1.227458 -2.187741 31.332709 -0.408495 -0.780676 -0.133756
-1.226808 -2.221429 31.614528 -0.416017 -0.767683 -0.136914
-1.323162 -2.258095 31.775119 -0.423144 -0.752009 -0.144152
-1.363976 -2.240727 31.770909 -0.432495 -0.737911 -0.146592
-1.317708 -2.252166 31.762936 -0.431483 -0.730853 -0.148694
-1.291793 -2.292403 31.761895 -0.420470 -0.735744 -0.150754
-1.292854 -2.245577 31.605541 -0.422701 -0.742655 -0.151147
-1.351538 -2.305962 31.626644 -0.408821 -0.757961 -0.152889
-1.332854 -2.237170 31.439701 -0.417151 -0.761482 -0.151904
-1.328501 -2.156888 31.224730 -0.427059 -0.772612 -0.151402
-1.318129 -2.067230 30.952155 -0.440836 -0.785422 -0.150833
-1.244193 -2.034192 30.652567 -0.450473 -0.786817 -0.148579
-1.199502 -1.993094 30.245075 -0.464989 -0.789842 -0.146235
-1.184021 -1.849150 29.627122 -0.489690 -0.792303 -0.144458
-1.172412 -1.706603 28.840837 -0.489433 -0.783244 -0.140022
-1.122239 -1.382868 27.757401 -0.478086 -0.758203 -0.135917
-1.197721 -1.149100 26.773182 -0.459429 -0.744921 -0.134461
-1.252266 -1.112001 26.044110 -0.442735 -0.740534 -0.133535
-1.268300 -1.033411 25.513744 -0.440869 -0.755845 -0.131283
-1.199678 -0.936405 25.195077 -0.426997 -0.794936 -0.129148
-1.098051 -0.772504 24.854197 -0.415033 -0.826805 -0.125694
-1.048347 -0.611642 24.578440 -0.409966 -0.852150 -0.127371
-1.095659 -0.525492 24.420049 -0.406499 -0.866076 -0.129569
-1.131442 -0.526344 24.242641 -0.402268 -0.862343 -0.130605
-1.109771 -0.579261 24.081218 -0.399861 -0.846570 -0.130072
-1.128013 -0.668914 23.720448 -0.409046 -0.844356 -0.130128
-1.145936 -0.741756 23.360619 -0.422156 -0.837966 -0.128002
-1.107840 -0.788145 22.897902 -0.409822 -0.841032 -0.129044
-1.101775 -0.694118 22.392527 -0.387019 -0.855100 -0.132014
-1.096757 -0.611686 21.700707 -0.373371 -0.855372 -0.138387
-1.229754 -0.822545 21.054365 -0.334821 -0.870702 -0.146859
-1.372706 -0.982273 20.459220 -0.298245 -0.895111 -0.153083
-1.384226 -0.983842 19.660662 -0.282799 -0.902806 -0.149972
-1.417930 -1.009715 19.082986 -0.271029 -0.916808 -0.150047
-1.404532 -1.119523 18.714606 -0.258858 -0.896982 -0.146875
-1.398965 -1.092519 18.425918 -0.263949 -0.879541 -0.147327
-1.438272 -0.939573 18.098561 -0.279562 -0.870415 -0.147273
-1.450629 -0.923771 17.913402 -0.276245 -0.854417 -0.144869
-1.435053 -0.977950 17.952760 -0.265925 -0.830840 -0.139747
-1.404314 -1.007991 17.926238 -0.261836 -0.811199 -0.134407
-1.480083 -1.044398 17.947862 -0.257835 -0.807129 -0.131977
-1.483881 -1.093227 17.992708 -0.253253 -0.789139 -0.130079
-1.539518 -1.162979 18.026452 -0.245926 -0.787312 -0.129402
-1.513940 -1.152722 17.961783 -0.250529 -0.773327 -0.124528
-1.351549 -1.171914 17.888484 -0.250933 -0.746402 -0.117017
-1.285109 -1.197096 17.835995 -0.247392 -0.730938 -0.108928
-1.173927 -1.220268 17.692137 -0.241627 -0.704243 -0.099808
-1.183043 -1.215355 17.480935 -0.235683 -0.695890 -0.094157
-1.131999 -1.250074 17.235793 -0.222718 -0.679165 -0.088182
-1.134938 -1.306113 16.924133 -0.206786 -0.678421 -0.085974
-1.149092 -1.354010 16.395064 -0.195490 -0.689783 -0.090788
-1.159693 -1.402078 16.033909 -0.185312 -0.698961 -0.094217
-1.160317 -1.446970 15.535254 -0.174450 -0.716729 -0.099982
-1.123947 -1.454146 15.010042 -0.167008 -0.724704 -0.104643
-1.071726 -1.466316 14.624192 -0.153987 -0.729024 -0.107873
-1.057066 -1.414345 14.237462 -0.145239 -0.735363 -0.109639
-1.093874 -1.317170 13.949037 -0.147312 -0.734646 -0.110427
-1.219499 -1.317563 13.913792 -0.151891 -0.731540 -0.111832
-1.292919 -1.417167 14.162619 -0.150640 -0.715900 -0.112596
-1.302090 -1.321208 14.287620 -0.168960 -0.701109 -0.112089
-1.356785 -1.232771 14.482032 -0.174431 -0.701735 -0.112736
-1.384168 -1.349006 15.042011 -0.145866 -0.699515 -0.113221
-1.378812 -1.418219 15.567222 -0.131253 -0.690262 -0.110218
-1.318418 -1.331605 15.846600 -0.175143 -0.678648 -0.107736
-1.298271 -1.587355 16.639416 -0.183052 -0.668845 -0.104886
-1.194720 -1.817556 17.538941 -0.171170 -0.673423 -0.103339
-1.197593 -1.662723 18.169953 -0.191725 -0.692722 -0.099788
-1.113120 -1.680908 18.907729 -0.204826 -0.681874 -0.093845
-1.145124 -1.921017 19.784600 -0.202327 -0.672016 -0.088961
-1.124281 -2.044044 20.373275 -0.209982 -0.654305 -0.084517
-1.167686 -2.086727 20.743735 -0.210947 -0.650853 -0.082001
-1.143296 -2.163236 21.086236 -0.200827 -0.645343 -0.082042
-1.153636 -2.160889 21.249449 -0.202738 -0.645690 -0.084980
-1.130665 -2.111800 21.221641 -0.212630 -0.640168 -0.086611
-1.127056 -2.158372 21.211763 -0.210064 -0.640375 -0.088451
-1.089365 -2.138299 21.083505 -0.217579 -0.632768 -0.088240
-1.155295 -2.088388 20.870465 -0.224880 -0.643453 -0.089874
-1.204099 -2.094657 20.651753 -0.224969 -0.649906 -0.091976
-1.196786 -2.037872 20.415462 -0.234310 -0.642599 -0.092295
-1.215899 -2.021756 20.290560 -0.235025 -0.651660 -0.093637
-1.146294 -1.945079 20.058397 -0.247476 -0.649161 -0.092535
-1.132046 -1.812514 19.826557 -0.260581 -0.658623 -0.093714
-1.134172 -1.734558 19.688670 -0.252211 -0.673151 -0.094844
-1.089691 -1.624013 19.508797 -0.245384 -0.673786 -0.094741
-1.102447 -1.510321 19.298295 -0.250314 -0.678138 -0.096423
-1.133981 -1.497925 19.181051 -0.246732 -0.677954 -0.096311
-1.180589 -1.510287 19.086001 -0.242064 -0.683920 -0.097480
-1.218674 -1.454955 18.918593 -0.245641 -0.687941 -0.097372
-1.220770 -1.437511 18.790779 -0.241189 -0.695398 -0.098038
-1.167974 -1.414708 18.670926 -0.239704 -0.690727 -0.097089
-1.153929 -1.371066 18.529906 -0.241452 -0.694229 -0.097954
-1.183669 -1.350678 18.322671 -0.240221 -0.698848 -0.097570
-1.194125 -1.299648 18.099994 -0.242777 -0.695111 -0.095759
-1.207989 -1.322287 17.811757 -0.237675 -0.694317 -0.095002
-1.230252 -1.313864 17.476671 -0.235816 -0.687506 -0.093337
-1.225593 -1.327619 17.031160 -0.234417 -0.678248 -0.093045
-1.269184 -1.394604 16.600336 -0.220312 -0.683297 -0.094578
-1.240666 -1.442128 16.135753 -0.198513 -0.687401 -0.094258
-1.182903 -1.337802 15.458516 -0.189794 -0.696217 -0.093040
-1.180360 -1.365689 15.079216 -0.166298 -0.717520 -0.094018
-1.169354 -1.370535 14.658585 -0.152207 -0.727762 -0.093020
-1.196402 -1.368522 14.102199 -0.143787 -0.737743 -0.091398
-1.208666 -1.299839 13.397729 -0.138617 -0.750308 -0.089663
-1.190521 -1.249074 12.899426 -0.122835 -0.758542 -0.089220
-1.154393 -1.225859 12.344704 -0.110857 -0.756116 -0.089790
-1.198925 -1.196184 11.875338 -0.104366 -0.769889 -0.101750
-1.199751 -1.107008 11.321732 -0.104698 -0.774479 -0.111506
-1.145651 -1.099705 11.053431 -0.084991 -0.777153 -0.121259
-1.176038 -1.057997 10.818550 -0.067194 -0.791386 -0.129665
-1.207332 -0.990609 10.635366 -0.063220 -0.801725 -0.132427
-1.265906 -0.960860 10.656272 -0.066059 -0.797128 -0.127886
-1.342269 -1.014516 10.907872 -0.065156 -0.795115 -0.126922
-1.356471 -0.914459 10.982525 -0.085953 -0.779473 -0.124671
-1.370603 -0.819516 11.156948 -0.100380 -0.767504 -0.125181
-1.478207 -0.950486 11.679193 -0.085265 -0.756107 -0.126724
-1.474426 -0.819449 11.932584 -0.104593 -0.722687 -0.126280
-1.508592 -0.864083 12.310017 -0.093877 -0.707812 -0.123932
-1.345518 -1.023504 13.085824 -0.081005 -0.667507 -0.112912
-1.355190 -1.118175 13.362758 -0.084378 -0.666757 -0.111645
-1.419504 -1.371181 14.111866 -0.097808 -0.666492 -0.107433
-1.395627 -1.705099 15.076529 -0.086472 -0.676028 -0.105873
-1.309747 -1.795228 15.953614 -0.091900 -0.692876 -0.103035
-1.184371 -1.772087 16.612481 -0.111015 -0.686140 -0.096554
-1.164554 -1.957924 17.531577 -0.116469 -0.682047 -0.092552
-1.087756 -2.142801 18.426187 -0.120924 -0.660398 -0.087033
-1.057008 -2.139913 19.190283 -0.139439 -0.635815 -0.079777
-1.055214 -2.165090 19.799440 -0.154250 -0.605510 -0.076332
-1.152790 -2.423393 20.488637 -0.146131 -0.575617 -0.076949
-1.216768 -2.477901 20.817980 -0.165339 -0.548781 -0.078563
-1.269252 -2.537282 21.117706 -0.171286 -0.545992 -0.083912
-1.260716 -2.649742 21.417641 -0.157874 -0.545405 -0.086816
-1.271426 -2.602920 21.620111 -0.163130 -0.558758 -0.092193
-1.259361 -2.537487 21.738297 -0.176521 -0.569317 -0.095963
-1.267606 -2.604098 22.131145 -0.175563 -0.574541 -0.099082
-1.231905 -2.618085 22.369931 -0.181677 -0.566297 -0.095229
-1.155371 -2.509297 22.786556 -0.197241 -0.562425 -0.091450
-1.054922 -2.416846 23.509855 -0.210841 -0.558158 -0.086969
-0.993318 -2.435596 24.431271 -0.227785 -0.545500 -0.086980
-0.998828 -2.326556 25.412016 -0.263441 -0.521476 -0.086222
-1.058428 -2.195005 26.598876 -0.309088 -0.506866 -0.088499
-1.083173 -2.353167 27.858594 -0.315175 -0.495885 -0.090490
-1.181264 -2.481440 28.967577 -0.329373 -0.495563 -0.091960
-1.141498 -2.255877 29.629515 -0.374447 -0.485900 -0.091148
-1.162269 -2.315417 30.413926 -0.367325 -0.501362 -0.094189
-1.070443 -2.508881 31.094748 -0.355964 -0.499879 -0.096138
-1.029355 -2.512487 31.235058 -0.377298 -0.506794 -0.099229
-0.968768 -2.561121 31.372091 -0.379868 -0.525170 -0.104544
-0.885544 -2.733940 31.483398 -0.356979 -0.546074 -0.107552
-0.739334 -2.697065 31.386700 -0.362139 -0.549719 -0.109932
-0.839548 -2.562817 31.094417 -0.381423 -0.594554 -0.117777
-0.817762 -2.575378 30.964042 -0.379717 -0.600781 -0.120790
-0.911480 -2.541317 30.718639 -0.384818 -0.647076 -0.130824
-0.941934 -2.350466 30.155951 -0.410196 -0.683532 -0.136241
-0.925597 -2.231766 29.715727 -0.404294 -0.712258 -0.142247
-0.991684 -2.190198 29.359518 -0.368465 -0.733879 -0.146123
-1.053305 -1.817562 28.490895 -0.392152 -0.741645 -0.148708
-1.165836 -1.589178 27.686472 -0.401337 -0.751520 -0.152885
-1.236166 -1.481282 26.960542 -0.389622 -0.762582 -0.159218
-1.281164 -1.314269 26.089279 -0.391073 -0.775608 -0.163817
-1.345915 -1.174034 25.261579 -0.390737 -0.792027 -0.168506
-1.406222 -1.180898 24.567783 -0.368346 -0.806977 -0.171304
-1.394055 -1.129445 23.869960 -0.352894 -0.815846 -0.170781
-1.335159 -0.924597 22.964015 -0.357440 -0.831332 -0.167042
-1.352524 -0.920755 22.285094 -0.333503 -0.866186 -0.164642
-1.270423 -0.823614 21.585980 -0.329071 -0.869303 -0.157251
-1.242246 -0.668222 20.768487 -0.333969 -0.884543 -0.156294
-1.282889 -0.528311 19.965632 -0.332581 -0.895282 -0.158753
-1.293146 -0.458212 19.209398 -0.320977 -0.894695 -0.164509
-1.232940 -0.480540 18.550403 -0.287276 -0.901654 -0.169332
-1.258516 -0.419040 17.766137 -0.265612 -0.927662 -0.169805
-1.328419 -0.460834 16.976997 -0.240011 -0.932555 -0.166615
-1.419803 -0.536006 16.070150 -0.217954 -0.921866 -0.165784
-1.684456 -0.633209 15.065984 -0.196681 -0.938065 -0.170210
-1.693373 -0.586527 13.931908 -0.185698 -0.914413 -0.169349
-1.746581 -0.665292 12.841074 -0.133555 -0.928939 -0.172751
-1.695493 -0.457843 11.371764 -0.128992 -0.920242 -0.168685
-1.702715 -0.592807 10.363065 -0.077427 -0.915185 -0.167163
-1.517368 -0.928817 9.542261 -0.012412 -0.864863 -0.157149
-1.480988 -0.548576 8.028452 -0.038722 -0.860697 -0.158000
-1.530700 -0.778861 7.183649 0.029850 -0.853532 -0.158441
-1.478836 -0.886372 6.604367 0.078819 -0.824346 -0.154744
-1.676141 -0.588713 5.527267 0.065504 -0.854084 -0.155328
-1.540771 -0.877777 5.154277 0.127279 -0.814168 -0.144089
-1.373355 -0.820409 4.343232 0.126963 -0.764725 -0.133525
-1.574087 -0.528785 3.464923 0.117280 -0.778040 -0.134070
-1.399219 -0.736904 3.164503 0.164621 -0.715712 -0.120930
-1.360211 -0.627200 2.720757 0.174758 -0.690049 -0.117576
-1.530133 -0.464230 2.038839 0.165875 -0.683448 -0.113107
-1.300939 -0.716297 1.789023 0.216447 -0.626863 -0.103812
-1.344553 -0.656854 1.329597 0.219059 -0.634470 -0.101973
-1.433371 -0.386267 0.653996 0.197930 -0.653856 -0.101872
-1.407431 -0.670312 0.687544 0.253879 -0.660931 -0.102770
-1.340632 -0.509155 0.215106 0.245014 -0.648527 -0.099132
-1.432892 -0.270795 -0.315839 0.226012 -0.665145 -0.101108
-1.393143 -0.545591 -0.276392 0.278751 -0.644331 -0.096618
-1.307152 -0.543992 -0.634688 0.280891 -0.624298 -0.093512
-1.469446 -0.367016 -1.049669 0.259024 -0.638476 -0.093452
-1.083891 -0.559785 -1.225691 0.286165 -0.567857 -0.084205
-1.197676 -0.678120 -1.276334 0.308574 -0.586025 -0.087910
-1.376710 -0.500797 -1.580833 0.291428 -0.613641 -0.093701
-1.371879 -0.478209 -1.769471 0.300945 -0.615075 -0.095396
-1.454085 -0.478468 -1.818200 0.318242 -0.630987 -0.096524
-1.301387 -0.322469 -2.018937 0.308908 -0.612068 -0.090686
-1.192218 -0.323333 -2.080408 0.321024 -0.599147 -0.088075
-1.083167 -0.406338 -2.007725 0.344215 -0.587979 -0.086869
-1.196035 -0.413804 -2.105592 0.349100 -0.605631 -0.088975
-1.078957 -0.445470 -2.079251 0.358667 -0.584254 -0.086393
-1.096021 -0.484102 -2.013094 0.369342 -0.583670 -0.086408
-1.132118 -0.516824 -2.015417 0.371414 -0.607185 -0.091471
-1.113333 -0.371063 -2.027783 0.353972 -0.606760 -0.091647
-1.175629 -0.371043 -2.072882 0.353448 -0.620741 -0.094537
-1.259296 -0.414517 -1.947069 0.359098 -0.637423 -0.097997
-1.186300 -0.445676 -2.010718 0.363840 -0.622648 -0.096662
-1.224981 -0.513890 -1.832483 0.376475 -0.631022 -0.097751
-1.015768 -0.749418 -1.679039 0.400909 -0.589485 -0.089110
-1.042802 -0.705994 -1.699315 0.390874 -0.595157 -0.089729
-1.133054 -0.753197 -1.561121 0.390959 -0.605180 -0.093729
-1.087766 -0.886959 -1.271594 0.400759 -0.593541 -0.095139
-1.260912 -0.878048 -1.309809 0.385318 -0.623947 -0.100326
-1.186245 -0.758267 -1.034533 0.342791 -0.615121 -0.099682
-1.195002 -0.948409 -0.693907 0.335749 -0.611163 -0.098317
-1.285869 -1.002821 -0.333241 0.322196 -0.616016 -0.098887
-1.267384 -1.114589 -0.105233 0.293301 -0.593984 -0.093305
-1.203071 -1.331539 0.752738 0.261780 -0.578977 -0.090712
-1.021844 -1.319746 1.299703 0.165521 -0.533301 -0.074713
-0.972820 -1.094623 2.676928 0.058076 -0.557239 -0.069110
-0.663743 -1.507666 4.592957 0.046232 -0.539893 -0.053055
-0.353287 -1.478758 6.344344 0.010003 -0.555236 -0.043124
-0.567553 -0.385257 6.647616 -0.169861 -0.600998 -0.041388
-0.627251 -0.774566 8.817685 -0.175874 -0.557727 -0.053192
-1.108647 -2.024948 11.745391 -0.133858 -0.418188 -0.056731
-1.582366 -1.686643 12.197619 -0.286052 -0.333674 -0.055945
-1.441525 -1.558907 13.032300 -0.333071 -0.283533 -0.052418
-1.092338 -2.334302 15.354976 -0.218256 -0.238064 -0.039956
-0.936876 -2.077568 16.160850 -0.302378 -0.252108 -0.042728
-1.017519 -1.939820 16.632044 -0.402468 -0.276205 -0.046078
-0.936344 -2.154524 17.647203 -0.411787 -0.264754 -0.047979
-1.169366 -2.438045 19.192287 -0.374010 -0.295904 -0.059962
-1.281949 -2.249595 19.794424 -0.425145 -0.272877 -0.058922
-1.416217 -2.380360 20.476416 -0.447204 -0.295080 -0.064168
-1.097984 -3.053422 21.781335 -0.400487 -0.262614 -0.058038
-0.816065 -3.110494 22.419470 -0.425605 -0.282566 -0.058973
-0.596893 -3.031247 22.772064 -0.438303 -0.308398 -0.060818
-0.551188 -3.109712 23.481789 -0.419729 -0.349159 -0.065437
-0.361178 -2.889683 23.669784 -0.464462 -0.341303 -0.063916
-0.626394 -2.590887 23.649074 -0.524788 -0.401633 -0.071768
-0.671844 -2.697887 24.120371 -0.520464 -0.412143 -0.071262
-0.786319 -2.868864 24.537743 -0.503353 -0.449907 -0.077121
-0.806565 -2.889819 24.903266 -0.506410 -0.467056 -0.079302
-0.611640 -3.045859 25.333364 -0.490083 -0.468008 -0.080727
-0.616885 -3.055807 26.028062 -0.497198 -0.485216 -0.085241
-0.798452 -2.997384 26.804882 -0.510899 -0.504285 -0.089696
-0.919908 -2.817306 27.735857 -0.538011 -0.510722 -0.092981
-1.046185 -2.455292 28.987874 -0.587938 -0.516292 -0.096356
-1.059081 -2.274010 30.599171 -0.597117 -0.516713 -0.099132
-1.155454 -2.252031 32.567280 -0.590192 -0.526845 -0.102102
-1.435224 -2.425841 35.092647 -0.563619 -0.561636 -0.109209
-1.434890 -2.152211 36.887097 -0.613363 -0.529572 -0.104935
-1.518650 -2.489387 39.368653 -0.561934 -0.545288 -0.112294
-1.404847 -2.692726 41.473678 -0.542917 -0.515530 -0.113335
-1.578544 -2.565289 42.310553 -0.577909 -0.558919 -0.124117
-1.635136 -2.620351 42.720935 -0.559069 -0.608203 -0.130112
-1.161074 -2.846483 43.041695 -0.528029 -0.647870 -0.138219
-0.570748 -2.874127 42.418531 -0.559071 -0.673892 -0.139373
-0.751604 -2.875646 41.696674 -0.574167 -0.795109 -0.157515
-0.390236 -2.831083 40.902229 -0.506535 -0.800551 -0.161343
-0.760140 -2.347678 39.970392 -0.457502 -0.861758 -0.167054
-0.665845 -2.278190 39.258804 -0.428442 -0.859074 -0.173987
-0.425488 -2.544851 38.903152 -0.370504 -0.839297 -0.173948
-0.747202 -2.430785 38.493803 -0.371318 -0.919390 -0.182565
-0.565703 -2.145451 37.836949 -0.392739 -0.932207 -0.187805
-0.482647 -1.739772 37.514599 -0.415447 -0.921761 -0.189132
-0.953859 -1.357166 37.135210 -0.450213 -0.985672 -0.214949
-1.070793 -1.052366 36.361664 -0.503823 -0.919519 -0.219115
-1.473295 -1.080881 35.951271 -0.501549 -0.976896 -0.233346
-1.334017 -1.210455 35.322057 -0.489847 -0.945884 -0.228717
-1.226860 -1.364625 34.409013 -0.483233 -0.962751 -0.234385
-1.089158 -1.529201 33.424176 -0.440845 -0.954176 -0.234643
-0.952030 -1.218050 31.627630 -0.394535 -0.977636 -0.247274
-1.538952 -0.548962 29.246097 -0.368809 -1.066193 -0.263032
-1.499649 -0.182444 26.802558 -0.340241 -1.015746 -0.267053
-2.018093 -0.356673 24.312667 -0.263980 -1.058486 -0.273870
-1.777201 0.712149 20.511392 -0.352943 -1.018276 -0.252973
-1.703105 0.620837 18.555117 -0.224291 -1.113845 -0.254884
-1.159415 0.315509 16.583978 -0.091803 -1.085545 -0.235805
-1.453782 1.387673 13.352230 -0.181914 -1.158746 -0.243553
-1.696819 0.696693 12.680084 -0.022480 -1.175910 -0.246370
-1.479512 0.313476 11.734804 0.085397 -1.116859 -0.240596
-1.883468 1.382439 10.050055 -0.041047 -1.168014 -0.242200
-2.284694 1.744212 9.268091 -0.059984 -1.173659 -0.227629
-2.100167 1.134143 9.859451 0.062373 -1.123432 -0.220192
-2.190498 1.555857 8.823001 0.011652 -1.060400 -0.204798
-2.220955 2.059878 7.306407 -0.059546 -1.009906 -0.201105
-1.997227 1.006473 7.267817 0.105739 -0.923417 -0.186829
-1.784304 1.194014 6.124507 0.113121 -0.866450 -0.165724
-1.840424 1.307957 4.829774 0.141421 -0.892924 -0.161387
-1.557237 0.940582 3.657973 0.194258 -0.814456 -0.144977
-1.710461 1.047217 1.766351 0.167731 -0.821758 -0.150682
-1.955511 0.518647 0.896465 0.234253 -0.816350 -0.150954
-2.011439 -0.015526 0.100305 0.290773 -0.807566 -0.147766
-1.847843 0.449969 -1.037712 0.225194 -0.788057 -0.134233
-1.779759 0.164574 -1.411201 0.261250 -0.786154 -0.125156
-1.396600 -0.505088 -0.909204 0.357193 -0.721958 -0.116563
-1.358949 -0.128468 -1.511088 0.302218 -0.707755 -0.113387
-1.244680 0.264399 -2.083700 0.235502 -0.691469 -0.114245
-1.130652 -0.384336 -1.364795 0.308754 -0.651312 -0.107747
-1.462286 -0.079784 -1.441118 0.238822 -0.678166 -0.095442
-1.087040 0.077551 -1.320117 0.199841 -0.637564 -0.074541
-1.382838 -0.167971 -0.522471 0.226412 -0.642857 -0.056052
-1.500668 -0.118915 -0.059031 0.198965 -0.698794 -0.062556
-0.969313 -0.271916 0.547805 0.164107 -0.567674 -0.042098
-1.693543 -0.634259 1.579974 0.155566 -0.667941 -0.065437
-1.189787 -0.849524 2.319995 0.132860 -0.579726 -0.060510
-0.995577 -0.882642 2.787046 0.120737 -0.577079 -0.059442
-1.117358 -0.844958 3.235106 0.114210 -0.636425 -0.067223
-0.860474 -0.720103 3.058771 0.091643 -0.620771 -0.066322
-1.240976 -0.688531 3.200145 0.082881 -0.695188 -0.080526
-1.060156 -0.976431 3.260577 0.117482 -0.643319 -0.075221
-1.221341 -1.011755 2.741099 0.147813 -0.687576 -0.082056
-0.893528 -1.212339 2.582941 0.201781 -0.643680 -0.074128
-0.883032 -1.558098 2.256251 0.267836 -0.665322 -0.078686
-0.840233 -1.524282 1.766303 0.262695 -0.636000 -0.074225
-0.817654 -1.641578 1.507892 0.275045 -0.625631 -0.076234
-0.827146 -1.595809 1.358518 0.279270 -0.638009 -0.079474
-0.828685 -1.349537 1.004164 0.263916 -0.665358 -0.085234
-0.857510 -1.047514 0.730035 0.226942 -0.692334 -0.091165
-0.955737 -1.121018 0.901613 0.231406 -0.708376 -0.093575
-0.952026 -1.319235 1.248345 0.241839 -0.694477 -0.092805
-0.924418 -1.340885 1.440606 0.224069 -0.667611 -0.090605
-0.949894 -1.496907 1.579399 0.228899 -0.658986 -0.092672
-0.998510 -1.649193 2.085350 0.250284 -0.658661 -0.097509
-1.062090 -1.525997 2.306883 0.240488 -0.665238 -0.101358
-1.120844 -1.337940 2.539645 0.213646 -0.683064 -0.104845
-1.154696 -1.251889 2.929955 0.179089 -0.689124 -0.106940
-1.231840 -1.225330 3.413756 0.121257 -0.691411 -0.107976
-1.346271 -1.202705 3.985053 0.075535 -0.710554 -0.108929
-1.216994 -1.316857 4.593383 0.082539 -0.717342 -0.109951
-1.041524 -1.275378 5.132147 0.083837 -0.714856 -0.109673
-0.970658 -1.289725 5.580560 0.077866 -0.721045 -0.112945
-1.006434 -1.515075 6.229849 0.078609 -0.708726 -0.117166
-1.075893 -1.676868 6.790450 0.059692 -0.694632 -0.122722
-1.203681 -1.643180 7.148890 0.029415 -0.693052 -0.126506
-1.190067 -1.497529 7.423533 0.006840 -0.692920 -0.129374
-1.196661 -1.372671 7.798011 -0.006987 -0.697186 -0.129511
-1.199159 -1.241233 8.009580 -0.034919 -0.695530 -0.130022
-1.179487 -1.270722 8.311262 -0.055126 -0.674149 -0.130391
-1.148227 -1.515525 8.870111 -0.047366 -0.654315 -0.132249
-1.105142 -1.663040 9.408238 -0.040587 -0.641033 -0.133425
-1.071498 -1.724061 9.898580 -0.038563 -0.629811 -0.130940
-1.072321 -1.660575 10.431445 -0.066630 -0.602533 -0.121133
-1.139899 -1.773799 11.292025 -0.080530 -0.575259 -0.110574
-1.105251 -1.865973 12.113383 -0.104221 -0.545817 -0.102368
-1.096961 -1.524410 12.544979 -0.182535 -0.529654 -0.096049
-1.080530 -1.284369 13.267693 -0.225620 -0.540195 -0.095941
-0.960505 -1.467617 14.388294 -0.208493 -0.525720 -0.090568
-0.947054 -1.422378 15.448901 -0.240201 -0.508970 -0.085196
-0.973667 -1.455295 16.352077 -0.274239 -0.489552 -0.078885
-0.988677 -1.751096 17.722012 -0.261451 -0.462009 -0.072058
-1.051219 -1.994714 18.906550 -0.253631 -0.458436 -0.075396
-1.185958 -1.553924 19.382704 -0.349574 -0.461014 -0.082609
-1.370253 -1.996638 20.874501 -0.313800 -0.478049 -0.090222
-1.252212 -2.206016 21.959822 -0.312646 -0.457535 -0.089487
-1.240961 -1.731315 22.224677 -0.398922 -0.470995 -0.088562
-1.093887 -2.008499 23.105978 -0.380820 -0.495694 -0.090236
-0.990540 -2.332925 23.764147 -0.376127 -0.490747 -0.093874
-1.134392 -2.350428 23.754382 -0.381355 -0.516250 -0.099016
-1.009171 -2.531379 23.789785 -0.362725 -0.502083 -0.098857
-0.959483 -2.828636 24.192121 -0.313038 -0.526187 -0.104527
-0.994210 -2.752300 24.126957 -0.320566 -0.558525 -0.110031
-1.014604 -2.503404 24.079981 -0.352775 -0.587326 -0.115295
-1.152462 -2.444266 24.288597 -0.349676 -0.648247 -0.125911
-1.112662 -2.317140 24.487528 -0.368017 -0.661137 -0.128038
-1.150270 -2.222600 24.660949 -0.397986 -0.679952 -0.132939
-1.114450 -2.260687 25.197094 -0.393523 -0.681290 -0.133098
-1.121254 -2.149033 25.672042 -0.399698 -0.679313 -0.131696
-1.166457 -2.000521 26.140156 -0.424862 -0.677607 -0.134031
-1.169488 -2.066209 26.694877 -0.435343 -0.667930 -0.135417
-1.226366 -2.087758 27.456678 -0.430909 -0.680455 -0.137440
-1.222921 -1.935825 28.005302 -0.438097 -0.694957 -0.137931
-1.299612 -1.812318 28.419160 -0.459391 -0.706731 -0.137001
-1.363861 -1.947506 29.064125 -0.460169 -0.710341 -0.137639
-1.328126 -2.003428 29.675972 -0.455849 -0.696996 -0.135002
-1.242644 -1.868989 30.018558 -0.450385 -0.689006 -0.133315
-1.242758 -1.687187 30.240632 -0.460052 -0.692401 -0.132380
-1.192212 -1.785173 30.587441 -0.459646 -0.687116 -0.131709
-1.139401 -1.874441 30.943689 -0.457504 -0.685076 -0.129534
-1.092205 -1.708886 31.009054 -0.467645 -0.701865 -0.132646
-1.091626 -1.613435 31.116275 -0.464775 -0.719907 -0.136267
-1.157280 -1.598232 31.241932 -0.461694 -0.746113 -0.139408
-1.112918 -1.610793 31.236956 -0.458755 -0.761363 -0.141609
-1.072509 -1.565927 31.160697 -0.454708 -0.779768 -0.144426
-1.017487 -1.510157 31.026033 -0.453843 -0.781926 -0.146534
-1.089686 -1.465093 30.873855 -0.452585 -0.790538 -0.149619
-1.181526 -1.422733 30.628078 -0.449463 -0.798095 -0.153219
-1.176381 -1.352222 30.239293 -0.444887 -0.800232 -0.154996
-1.052067 -1.316598 29.791325 -0.435787 -0.798000 -0.156476
-1.098444 -1.259573 29.209564 -0.431547 -0.823340 -0.162822
-1.161520 -1.315389 28.799496 -0.420980 -0.847383 -0.173827
-1.165171 -1.259417 28.163032 -0.436888 -0.850990 -0.182481
-1.344723 -1.101119 27.308321 -0.457735 -0.877425 -0.192531
-1.277368 -0.974137 26.563839 -0.432279 -0.854590 -0.193734
-1.321128 -0.779752 25.675086 -0.390666 -0.863985 -0.195648
-1.409028 -0.586565 24.587448 -0.376906 -0.867168 -0.196232
-1.503668 -0.680541 23.751595 -0.363768 -0.865109 -0.195725
-1.484820 -0.627392 22.816285 -0.367380 -0.851841 -0.190794
-1.526408 -0.372422 21.810336 -0.374531 -0.869509 -0.188743
-1.432554 -0.308055 21.032588 -0.352176 -0.856617 -0.181589
-1.453521 -0.163233 20.191902 -0.349663 -0.852903 -0.180173
-1.524289 0.020397 19.133368 -0.351373 -0.848042 -0.179044
-1.477215 0.018421 18.653363 -0.329888 -0.836639 -0.177279
-1.420574 -0.035234 18.204448 -0.296738 -0.846074 -0.175941
-1.339850 0.054974 17.593638 -0.289182 -0.868883 -0.172484
-1.250857 0.070672 17.058601 -0.272764 -0.894477 -0.169026
-1.242203 -0.054712 16.543841 -0.237344 -0.917827 -0.167745
-1.333052 -0.000657 15.667217 -0.242266 -0.923731 -0.166464
-1.449065 0.008694 14.685591 -0.234272 -0.916682 -0.165164
-1.514718 -0.028576 13.795318 -0.212013 -0.905366 -0.162456
-1.604865 -0.206394 12.668995 -0.166295 -0.907933 -0.163301
-1.672711 -0.007541 11.148955 -0.164834 -0.898324 -0.160051
-1.699385 -0.234085 9.878389 -0.098505 -0.922224 -0.164619
-1.643788 -0.690962 8.633847 -0.012621 -0.908238 -0.156438
-1.681312 -0.324803 6.737470 -0.037267 -0.937174 -0.159609
-1.738097 -0.316025 4.956259 -0.008547 -0.940595 -0.154959
-1.647941 -0.762046 4.568396 0.105690 -0.931456 -0.159348
-1.687785 -0.747433 2.791433 0.126495 -0.910426 -0.155112
-1.853868 0.111687 0.658887 0.033186 -0.929596 -0.164508
-1.774475 -0.442993 0.460818 0.152098 -0.886198 -0.161858
-1.579886 -0.928611 0.316809 0.261371 -0.830782 -0.151785
-1.545616 0.315145 -1.682007 0.126862 -0.813710 -0.144654
-1.464477 0.144365 -1.893024 0.189404 -0.788082 -0.139002
-1.325939 -0.708015 -0.889621 0.344805 -0.761145 -0.139188
-1.433633 0.041847 -1.793792 0.254424 -0.757097 -0.134788
-1.542969 0.464177 -2.558516 0.200947 -0.775702 -0.136081
-1.276458 -0.329007 -1.479507 0.320094 -0.707481 -0.124268
-1.326110 -0.132957 -1.611295 0.296569 -0.709800 -0.121524
-1.371532 0.445043 -2.343577 0.215075 -0.710036 -0.118493
-1.185052 0.042766 -1.790015 0.265933 -0.658730 -0.110963
-1.183607 -0.158483 -1.351150 0.277382 -0.642812 -0.106720
-1.134865 0.193269 -1.700699 0.191140 -0.625358 -0.096544
-1.156309 0.386232 -1.794079 0.140706 -0.611439 -0.084897
-1.201088 -0.185424 -0.848967 0.216739 -0.628004 -0.086481
-1.160636 -0.045281 -0.748571 0.188108 -0.628436 -0.086057
-1.281551 0.229272 -0.839129 0.132844 -0.663947 -0.095282
-1.217356 -0.239741 -0.230190 0.170871 -0.657407 -0.097647
-1.242511 -0.536484 0.380284 0.178971 -0.656274 -0.097775
-1.239852 -0.479779 0.499193 0.146311 -0.666797 -0.096832
-1.009376 -0.648890 0.837137 0.166033 -0.632732 -0.085668
-0.940635 -0.872493 1.259179 0.197688 -0.639753 -0.085088
-0.987450 -0.768385 1.402593 0.176387 -0.642565 -0.084606
-1.034921 -0.850732 1.546607 0.175554 -0.641626 -0.086795
-1.134884 -1.121611 1.981554 0.197141 -0.645171 -0.091566
-1.148417 -1.236771 2.085270 0.190563 -0.635215 -0.094547
-1.199209 -1.277277 2.127687 0.176786 -0.641712 -0.100055
-1.195744 -1.613392 2.508851 0.205740 -0.646485 -0.103572
-1.188005 -1.638599 2.588909 0.201843 -0.651615 -0.104718
-1.183895 -1.539372 2.602008 0.185274 -0.660186 -0.105022
-1.115712 -1.570918 2.781081 0.192725 -0.655643 -0.105192
-1.071388 -1.551514 3.051137 0.194452 -0.658099 -0.107541
-1.089817 -1.420349 3.146423 0.175791 -0.664102 -0.107476
-1.103460 -1.413187 3.343682 0.174190 -0.670111 -0.108420
-1.093970 -1.484774 3.758169 0.188375 -0.668614 -0.109541
-1.085697 -1.367437 3.971451 0.176668 -0.667596 -0.111329
-1.084602 -1.390048 4.471510 0.173308 -0.666572 -0.114391
-1.087216 -1.488731 4.966161 0.156552 -0.656203 -0.118733
-1.164151 -1.493212 5.515609 0.106143 -0.652821 -0.121779
-1.167966 -1.598838 6.323453 0.074886 -0.654960 -0.124746
-1.031160 -1.776579 7.566262 0.076230 -0.657042 -0.125875
-0.870103 -1.353053 8.199576 0.000950 -0.647986 -0.123930
-0.965418 -1.018582 9.079613 -0.073759 -0.627740 -0.118763
-1.071059 -1.467035 11.105358 -0.064748 -0.569166 -0.110901
-1.144823 -1.649647 12.526467 -0.111370 -0.496733 -0.102971
-1.194733 -1.612813 13.872648 -0.165327 -0.467465 -0.098512
-1.052549 -1.287199 14.840513 -0.236823 -0.435907 -0.090426
-1.165734 -1.548074 16.441495 -0.217334 -0.461234 -0.091254
-1.125094 -1.863025 18.051019 -0.223509 -0.429118 -0.083403
-1.121342 -1.801402 19.019239 -0.289701 -0.408120 -0.079287
-1.135169 -1.998802 19.691421 -0.304869 -0.388253 -0.081733
-1.195784 -2.015114 20.222216 -0.317893 -0.370828 -0.092634
-1.319020 -2.442391 20.979023 -0.277357 -0.375549 -0.099298
-1.180558 -2.630215 21.201037 -0.289488 -0.371173 -0.096974
-0.986163 -2.845621 21.261889 -0.293047 -0.400091 -0.094931
-0.764361 -3.269341 21.634797 -0.257439 -0.436098 -0.097251
-0.738461 -3.369625 21.759548 -0.255566 -0.458208 -0.097601
-0.858493 -3.191808 21.621117 -0.263991 -0.494787 -0.104222
-0.896087 -3.142279 21.628615 -0.244064 -0.506527 -0.108008
-0.941296 -2.900210 21.813581 -0.264703 -0.513191 -0.111141
-0.896743 -2.636872 21.682434 -0.281259 -0.518319 -0.111029
-0.907853 -2.412540 21.794652 -0.268606 -0.534093 -0.110688
-0.904667 -2.191204 21.899294 -0.264000 -0.546258 -0.112324
-0.995018 -2.012294 22.096825 -0.302565 -0.561198 -0.119894
-1.091052 -2.120223 22.472836 -0.320283 -0.573033 -0.125904
-1.135546 -2.217632 23.000026 -0.347290 -0.594807 -0.132250
-1.227954 -1.994794 23.647138 -0.366957 -0.640383 -0.138418
-1.265589 -1.721143 24.245138 -0.372531 -0.670258 -0.138879
-1.278847 -1.596624 25.116912 -0.379889 -0.659505 -0.133359
-1.331392 -1.591020 26.172237 -0.399403 -0.642966 -0.131703
-1.319607 -1.581597 26.878916 -0.408053 -0.619719 -0.130337
-1.302773 -1.556409 28.051713 -0.394829 -0.597649 -0.127095
-1.301416 -1.446700 28.796675 -0.390913 -0.597953 -0.126777
-1.295838 -1.324855 29.466704 -0.412066 -0.587091 -0.123099
-1.342860 -1.317230 30.350572 -0.429724 -0.595669 -0.124336
-1.284255 -1.631283 31.394979 -0.408860 -0.590753 -0.121683
-1.242369 -1.796502 32.143496 -0.398876 -0.599374 -0.120559
-1.255940 -1.577395 32.422486 -0.428178 -0.628748 -0.121865
-1.241234 -1.576805 32.716367 -0.421115 -0.661540 -0.124365
-1.105994 -1.751298 33.203055 -0.396222 -0.670900 -0.124125
-1.093692 -1.859964 33.615089 -0.384042 -0.698431 -0.128154
-0.932032 -1.874782 33.377928 -0.388821 -0.702972 -0.129774
-0.809036 -1.987181 33.327820 -0.383256 -0.702587 -0.129625
-0.778790 -2.275831 33.338109 -0.353367 -0.726141 -0.133346
-0.766070 -2.412838 33.139552 -0.350540 -0.738985 -0.133943
-0.735289 -2.319144 32.686139 -0.380377 -0.750039 -0.137840
-0.927562 -2.341947 32.360290 -0.369440 -0.795571 -0.151288
-0.932905 -2.084988 31.834841 -0.358818 -0.803738 -0.161731
-1.086671 -1.700596 31.037410 -0.344767 -0.849201 -0.178479
-1.071351 -1.593285 30.250352 -0.327716 -0.852456 -0.187604
-1.127413 -1.534795 29.307836 -0.340674 -0.863807 -0.195551
-1.270398 -1.484987 28.497571 -0.340795 -0.888728 -0.201222
-1.219576 -1.232374 27.471131 -0.344098 -0.874882 -0.199368
-1.359289 -0.916730 26.426350 -0.345461 -0.914920 -0.207592
-1.312873 -0.871816 25.777073 -0.334980 -0.905914 -0.206952
-1.280508 -0.826105 25.033386 -0.329096 -0.893353 -0.205973
-1.468870 -0.779069 24.386415 -0.315525 -0.919073 -0.209328
-1.422774 -0.593673 23.186947 -0.304598 -0.911213 -0.211552
-1.438771 -0.545985 22.906838 -0.306855 -0.916313 -0.214645
-1.525045 -0.509558 22.191983 -0.301443 -0.915953 -0.218628
-1.612743 -0.449767 21.488521 -0.295480 -0.918413 -0.220287
-1.739246 -0.325242 20.642412 -0.296779 -0.916431 -0.218064
-1.742359 -0.077630 19.462350 -0.318274 -0.886611 -0.210174
-1.765242 -0.138257 18.704543 -0.271778 -0.898028 -0.206414
-1.562348 -0.140571 17.738022 -0.218183 -0.903130 -0.196848
-1.455853 0.011922 16.318067 -0.195214 -0.937535 -0.192653
-1.513882 -0.007481 14.662037 -0.170061 -0.972991 -0.191311
-1.568924 -0.183039 13.322042 -0.113291 -0.978580 -0.188037
-1.571940 -0.066289 11.397962 -0.085258 -0.980234 -0.186807
-1.824098 -0.341741 9.773283 0.009986 -1.013257 -0.186941
-1.772252 0.115823 7.215092 -0.016710 -0.998480 -0.183122
-1.906313 0.222919 5.338678 0.015264 -1.034937 -0.188343
-1.744624 -0.699268 4.307600 0.181652 -0.992384 -0.178287
-1.675778 0.274782 1.602839 0.078804 -0.967921 -0.173641
-2.059803 0.005131 0.677654 0.161752 -1.030825 -0.189421
-1.516265 -0.297344 -0.371053 0.239329 -0.896857 -0.173293
-2.051809 0.237406 -1.327347 0.214173 -1.002487 -0.195542
-1.849367 -0.093319 -1.486543 0.273353 -0.945908 -0.182320
-1.596088 0.190701 -2.111213 0.243015 -0.890083 -0.169204
-1.930102 -0.101016 -1.459985 0.306297 -0.949350 -0.178827
-1.427682 -0.265650 -1.668994 0.328562 -0.816009 -0.154109
-1.551341 0.267820 -2.550365 0.250722 -0.838747 -0.157514
-1.536434 0.052317 -1.993976 0.290246 -0.811211 -0.148147
-1.246557 -0.795405 -1.285513 0.405434 -0.739762 -0.122318
-1.404105 0.289906 -2.289101 0.249123 -0.755957 -0.110685
-1.307365 0.333886 -2.638268 0.232476 -0.745200 -0.107659
-1.129496 -0.346319 -1.853683 0.319778 -0.697339 -0.100469
-1.242315 -0.390122 -1.390877 0.315317 -0.725884 -0.109316
-1.348324 0.189649 -1.978239 0.216810 -0.731007 -0.107526
-1.267132 0.040213 -1.852443 0.224704 -0.717841 -0.106980
-1.141312 -0.313947 -1.315204 0.264721 -0.688997 -0.100747
-1.256615 -0.026873 -1.618134 0.209565 -0.706876 -0.099519
-1.158048 -0.100650 -1.632650 0.208148 -0.694169 -0.094946
-1.220874 -0.208713 -1.268648 0.216997 -0.690347 -0.092736
-1.170377 -0.239660 -1.241569 0.213213 -0.686410 -0.094862
-1.166493 -0.141793 -1.240706 0.192775 -0.670183 -0.093089
-1.024124 -0.282396 -1.195596 0.205191 -0.648692 -0.095559
-1.184737 -0.645646 -0.787734 0.253379 -0.673579 -0.101700
-1.071922 -0.599307 -0.790597 0.227080 -0.648647 -0.097948
-1.096959 -0.790519 -0.790357 0.226796 -0.662927 -0.100370
-1.142124 -0.791936 -0.572508 0.194426 -0.667941 -0.101140
-1.125989 -0.724126 -0.401675 0.173219 -0.669720 -0.105789
-1.271313 -0.892409 0.093669 0.184341 -0.684662 -0.109699
-1.089643 -0.690479 -0.388038 0.136587 -0.647557 -0.105062
-1.145210 -0.507477 -0.532774 0.101806 -0.650597 -0.106622
-1.053156 -0.650220 -0.188010 0.116188 -0.624685 -0.105785
-1.066596 -0.956364 0.122857 0.144878 -0.620386 -0.108640
-1.054067 -0.767080 -0.011376 0.092422 -0.609919 -0.109232
-1.108482 -1.027823 0.628373 0.096653 -0.621328 -0.113811
-1.015261 -0.972141 0.897533 0.038194 -0.590045 -0.113191
-1.274910 -1.159137 1.809598 0.017292 -0.617186 -0.121694
-1.231861 -1.367539 2.717153 0.026555 -0.596240 -0.123470
-1.207530 -1.282543 3.025410 0.008031 -0.576029 -0.124008
-1.304719 -1.160259 3.265679 -0.022726 -0.568075 -0.127135
-1.278803 -1.513139 3.849997 -0.009901 -0.500312 -0.121535
-1.285182 -1.832662 4.167150 -0.011072 -0.445983 -0.118812
-1.451404 -1.964014 4.052672 -0.033335 -0.449355 -0.121525
-1.379295 -2.333462 4.158782 -0.012359 -0.425682 -0.117042
-1.520453 -2.469493 4.044413 -0.010471 -0.450203 -0.117178
-1.567424 -2.390931 3.812971 -0.003859 -0.475393 -0.116145
-1.323806 -2.086938 3.495648 0.004402 -0.483550 -0.108692
-1.133192 -1.823933 3.160008 0.025752 -0.522682 -0.100123
-1.085929 -1.704459 3.202066 0.032086 -0.532362 -0.093747
-1.071150 -1.636024 3.145829 0.033895 -0.542070 -0.089250
-1.033284 -1.729421 3.228456 0.053389 -0.532857 -0.085273
-0.956824 -1.722393 3.245329 0.052962 -0.519738 -0.084577
-0.926599 -1.675004 3.132512 0.035418 -0.507320 -0.082254
-1.005891 -1.617925 3.229177 0.021630 -0.513102 -0.083311
-1.108292 -1.616718 3.353632 0.012335 -0.517639 -0.083250
-1.117982 -1.581106 3.454540 -0.001513 -0.510417 -0.082112
-1.139020 -1.467098 3.521458 -0.024122 -0.516869 -0.083790
-1.175232 -1.380950 3.656422 -0.043336 -0.526655 -0.085404
-1.150379 -1.347920 3.790103 -0.057872 -0.527656 -0.085125
-1.139768 -1.375179 4.085824 -0.066606 -0.528507 -0.085705
-1.190940 -1.418845 4.496190 -0.073177 -0.537647 -0.086765
-1.203777 -1.315639 4.787979 -0.096443 -0.537456 -0.085534
-1.104082 -1.211904 5.063536 -0.112774 -0.525380 -0.083814
-1.026166 -1.126936 5.483139 -0.120412 -0.516453 -0.083230
-1.019351 -1.056090 5.895445 -0.132897 -0.506409 -0.082255
-1.080619 -0.949376 6.205605 -0.162184 -0.500090 -0.083152
-1.144302 -0.967446 6.886846 -0.169471 -0.488060 -0.082319
-1.160871 -1.030703 7.457520 -0.173584 -0.480018 -0.077380
-1.097251 -0.873829 8.060271 -0.201093 -0.475333 -0.072395
-1.040250 -0.851475 8.970381 -0.206199 -0.475497 -0.070221
-1.068829 -1.136797 10.101519 -0.176561 -0.475600 -0.069930
-1.109096 -1.021247 10.898517 -0.218089 -0.449669 -0.067475
-1.172808 -0.861845 11.540731 -0.271435 -0.422356 -0.065642
-1.131210 -1.134427 12.672587 -0.255475 -0.396575 -0.067593
-1.071600 -1.385530 13.743313 -0.240555 -0.376248 -0.069004
-1.192905 -1.178862 13.851280 -0.294763 -0.388197 -0.070514
-1.167069 -1.353639 14.386578 -0.274037 -0.404626 -0.074305
-0.974755 -1.691492 14.912968 -0.227157 -0.396214 -0.076371
-1.046134 -1.739030 14.662433 -0.252120 -0.413708 -0.083004
-1.120350 -2.115794 14.481160 -0.242948 -0.439143 -0.090844
-1.103781 -2.586273 14.473228 -0.208415 -0.451184 -0.094972
-1.084777 -2.458862 14.267167 -0.208761 -0.470924 -0.096733
-0.902338 -2.239920 13.850853 -0.179816 -0.488664 -0.096589
-0.819949 -2.004783 13.636578 -0.166023 -0.484661 -0.095010
-1.021024 -1.966954 13.696826 -0.163539 -0.492745 -0.099661
-1.104618 -2.042881 13.834498 -0.146820 -0.478946 -0.102117
-1.125299 -1.963304 13.998670 -0.137513 -0.478334 -0.103502
-1.072063 -1.798116 14.060234 -0.152675 -0.475669 -0.100706
-1.095415 -1.756740 14.412016 -0.180654 -0.490426 -0.102081
-1.114800 -1.791405 14.919408 -0.220504 -0.504077 -0.105641
-1.096069 -1.613507 15.308932 -0.266819 -0.514388 -0.105727
-1.031047 -1.323433 15.804472 -0.293443 -0.520760 -0.104003
-1.064202 -1.176600 16.109609 -0.307499 -0.527058 -0.104180
-1.162055 -1.200562 16.640476 -0.321104 -0.528453 -0.107127
-1.189447 -1.356448 17.223387 -0.322004 -0.516713 -0.108609
-1.128480 -1.354772 17.734386 -0.319408 -0.508412 -0.107036
-1.090973 -1.296492 18.152278 -0.313519 -0.515072 -0.107685
-1.081400 -1.285700 18.653771 -0.317722 -0.510603 -0.109583
-1.151207 -1.322592 19.052391 -0.339849 -0.516238 -0.114053
-1.194360 -1.389328 19.577771 -0.352295 -0.518068 -0.116157
-1.134798 -1.467643 20.042245 -0.343697 -0.520047 -0.115028
-1.118393 -1.416641 20.351350 -0.346603 -0.531648 -0.115173
-1.129714 -1.323923 20.551620 -0.365266 -0.538549 -0.115172
-1.125880 -1.499827 21.037698 -0.356429 -0.527661 -0.117405
-1.085803 -1.656928 21.412369 -0.352318 -0.512530 -0.120743
-1.101417 -1.636157 21.534574 -0.366425 -0.520247 -0.123569
-1.152532 -1.670914 21.774953 -0.364950 -0.544758 -0.125950
-1.088333 -1.748566 22.095990 -0.356677 -0.559346 -0.125263
-1.072477 -1.690318 22.236263 -0.372016 -0.587365 -0.128327
-1.103739 -1.693481 22.500878 -0.379190 -0.609106 -0.133482
-1.167158 -1.760202 22.853887 -0.378520 -0.627205 -0.139248
-1.292162 -1.682571 23.078672 -0.400698 -0.651589 -0.144569
-1.264282 -1.660884 23.324936 -0.419470 -0.647201 -0.143532
-1.244494 -1.753386 23.760595 -0.423928 -0.647870 -0.143286
-1.187849 -1.726700 24.073650 -0.438837 -0.640226 -0.142139
-1.238105 -1.673617 24.474156 -0.444145 -0.648770 -0.144954
-1.319793 -1.649612 24.900490 -0.445590 -0.654008 -0.147170
-1.349328 -1.610700 25.327746 -0.461099 -0.648775 -0.147992
-1.450059 -1.625481 25.851313 -0.480603 -0.657795 -0.149405
-1.422082 -1.683094 26.548111 -0.490016 -0.653430 -0.147374
-1.394934 -1.725083 27.293334 -0.487738 -0.653968 -0.144076
-1.365130 -1.757233 28.166535 -0.481085 -0.647637 -0.138466
-1.308220 -1.683905 28.866504 -0.505066 -0.628725 -0.133734
-1.324557 -1.865517 29.898898 -0.512295 -0.615666 -0.132923
-1.289400 -2.175526 31.041343 -0.494527 -0.590000 -0.129669
-1.275490 -1.859544 31.554959 -0.539282 -0.584593 -0.125679
-1.369515 -1.756189 32.131295 -0.561233 -0.599227 -0.123111
-1.279666 -2.060136 32.977747 -0.545341 -0.594923 -0.122143
-1.162822 -2.126627 33.382848 -0.559371 -0.604073 -0.120582
-1.075350 -2.064060 33.643365 -0.568068 -0.640110 -0.123683
-1.029382 -2.213546 34.153331 -0.545618 -0.673587 -0.128626
-1.151452 -2.212699 34.487520 -0.563796 -0.709783 -0.134094
-1.071944 -2.293025 35.017174 -0.574958 -0.709275 -0.136549
-0.927005 -2.463232 35.857514 -0.563247 -0.714876 -0.141097
-1.068720 -2.209596 36.286270 -0.609117 -0.747233 -0.146117
-1.179180 -1.969609 36.943437 -0.661559 -0.758318 -0.151225
-1.199763 -2.282279 38.623577 -0.662302 -0.745526 -0.158193
-1.226847 -2.280098 39.517385 -0.689913 -0.737945 -0.161944
-1.216571 -2.056929 40.658235 -0.726099 -0.726159 -0.167248
-1.383894 -2.255933 42.380917 -0.707599 -0.745006 -0.175586
-1.437052 -2.119447 43.362953 -0.769076 -0.747677 -0.176653
-1.489228 -2.406565 45.041315 -0.752002 -0.804012 -0.186821
-1.139501 -2.902484 46.456450 -0.689413 -0.780111 -0.179990
-1.070825 -2.732610 46.709313 -0.721396 -0.834808 -0.191559
-1.265313 -2.758361 47.098295 -0.726417 -0.879436 -0.195435
-0.852358 -3.258605 47.454696 -0.666539 -0.860393 -0.200861
-1.198777 -3.195995 47.290044 -0.686799 -0.920826 -0.201703
-1.062814 -3.080397 47.038803 -0.700278 -0.943582 -0.204922
-0.636322 -3.223967 47.120690 -0.674492 -0.880904 -0.191134
-0.899850 -3.034577 47.411406 -0.689581 -0.966785 -0.210832
-0.728736 -2.699538 47.348515 -0.727235 -0.929624 -0.208025
-0.897956 -2.592859 47.843199 -0.731569 -0.930578 -0.209932
-1.093263 -2.809969 49.014045 -0.717764 -0.954033 -0.218370
-1.001305 -2.756338 50.121494 -0.757132 -0.898560 -0.204960
-1.535312 -2.703430 51.523684 -0.769312 -1.038166 -0.229211
-1.093354 -2.691509 52.805341 -0.784153 -0.943293 -0.214965
-1.328786 -2.329455 53.762445 -0.842652 -0.985384 -0.228715
-1.513300 -2.310833 54.787893 -0.838002 -1.021455 -0.237009
-1.011207 -2.356299 55.316231 -0.819572 -0.929355 -0.223930
-1.274479 -2.526282 55.339592 -0.781971 -1.028871 -0.242797
-1.135718 -2.693090 55.104231 -0.739570 -1.016400 -0.236600
-0.930673 -3.136896 54.833926 -0.661812 -1.048953 -0.251265
-0.731840 -3.148528 54.257349 -0.659364 -1.060123 -0.258211
-0.713498 -2.963861 53.484128 -0.675874 -1.091480 -0.260091
-0.861537 -2.732212 53.064087 -0.637726 -1.162244 -0.268637
-0.589745 -2.114764 52.368673 -0.669635 -1.106058 -0.248428
-1.106248 -1.454859 51.664303 -0.718429 -1.174457 -0.252833
-0.741479 -1.263452 51.013199 -0.723998 -1.051838 -0.241944
-0.806940 -1.254582 50.426158 -0.687338 -1.046483 -0.247934
-1.101947 -1.053773 49.333204 -0.670324 -1.064155 -0.254082
-0.703648 -1.016986 48.128313 -0.624563 -1.000577 -0.257997
-1.222548 -0.864788 47.069101 -0.589946 -1.072113 -0.271979
-1.400319 -0.415418 45.386067 -0.591173 -1.077716 -0.284360
-1.379519 -0.261778 43.966484 -0.559996 -1.052664 -0.299963
-1.454110 0.046611 42.653482 -0.537267 -1.042000 -0.309643
-1.676732 0.221310 41.218663 -0.497718 -1.125833 -0.335132
-1.551573 0.416305 39.578703 -0.474741 -1.099550 -0.334947
-1.969827 0.594316 38.041123 -0.447836 -1.141857 -0.346108
-2.083401 0.645463 36.778368 -0.409111 -1.047882 -0.327554
-2.092410 0.797220 35.731517 -0.407451 -0.983602 -0.317028
-2.442950 1.289880 34.533033 -0.450838 -0.999085 -0.315198
-2.385866 1.549548 34.093514 -0.419595 -0.970845 -0.309529
-2.516141 1.679983 34.150911 -0.388199 -1.014504 -0.314058
-2.285407 1.863281 33.900828 -0.396978 -0.994171 -0.304195
-2.151168 1.602697 33.963845 -0.415057 -0.959274 -0.291456
-2.194472 1.039360 34.588277 -0.383547 -0.930058 -0.278147
-2.086815 0.666724 34.614911 -0.345141 -0.882882 -0.264543
-2.049787 0.537342 34.332552 -0.370721 -0.858762 -0.253986
-1.791301 -0.034168 34.175161 -0.353447 -0.779568 -0.236645
-1.605351 -0.251193 33.430077 -0.325412 -0.705323 -0.222369
-1.745108 0.144501 31.808908 -0.302495 -0.687940 -0.214860
-1.703723 -0.044500 30.077302 -0.239404 -0.643047 -0.204261
-1.719963 -0.712224 28.207995 -0.179531 -0.628523 -0.198458
-1.390446 -0.875256 25.833716 -0.162088 -0.633394 -0.184197
-1.049217 -0.942398 23.675328 -0.102335 -0.671949 -0.166510
-0.718342 -0.689682 21.723370 -0.070064 -0.725179 -0.158201
-0.895403 -1.048467 20.362213 0.000601 -0.793300 -0.155425
-0.808215 -1.179017 19.155457 -0.000823 -0.756589 -0.145848
-1.022180 -1.011321 17.863309 -0.021062 -0.744356 -0.140658
-1.156757 -1.036614 17.572153 0.034939 -0.695140 -0.126849
-1.242751 -0.712007 17.084159 0.026936 -0.670591 -0.118079
-1.311282 -0.231516 16.551220 -0.000451 -0.662160 -0.111001
-1.229787 -0.399333 16.222177 0.052887 -0.634966 -0.101577
-1.088192 -0.241592 15.218048 0.025490 -0.593152 -0.096336
-1.487966 -0.261896 13.319006 -0.002467 -0.633181 -0.101525
-1.483471 -0.404017 13.165150 0.029641 -0.636847 -0.101538
-1.420224 -0.565657 12.528286 0.107910 -0.653412 -0.101355
-1.268178 -0.349972 11.154653 0.146577 -0.657782 -0.098163
-1.293838 0.438085 8.856158 0.077714 -0.667749 -0.095492
-1.588347 0.456973 7.589539 0.110661 -0.723531 -0.108763
-1.594897 -0.746849 6.987697 0.300479 -0.657419 -0.101109
-1.517735 -0.094148 4.199219 0.213427 -0.604866 -0.095557
-1.920015 -0.264646 2.757065 0.265398 -0.682773 -0.110829
-0.871168 -0.494185 1.303312 0.326875 -0.508061 -0.088113
-1.490402 -0.283992 0.512039 0.327320 -0.668331 -0.117705
-1.253573 0.149457 -1.215588 0.259082 -0.598594 -0.098403
-1.549328 0.130296 -1.404914 0.277398 -0.696958 -0.121878
-1.214745 -0.681121 -1.067726 0.387000 -0.655396 -0.115703
-1.168155 0.177381 -2.221373 0.264828 -0.619601 -0.101524
-1.594281 -0.136367 -1.996267 0.316377 -0.751181 -0.130536
-1.417166 -0.863431 -1.129346 0.406213 -0.649550 -0.101281
-0.869525 -0.190571 -2.258304 0.300851 -0.588631 -0.093183
-1.223180 0.119852 -2.351079 0.260833 -0.642357 -0.091895
-1.029181 -0.551349 -1.486023 0.359678 -0.587198 -0.079071
-0.721957 -0.468729 -1.433349 0.352442 -0.578956 -0.083384
-1.049923 0.552377 -2.727424 0.206283 -0.627165 -0.083953
-1.209111 -0.279816 -1.594869 0.316193 -0.639331 -0.083579
-1.019998 -0.383639 -1.355723 0.314179 -0.632196 -0.079793
-1.763667 0.183298 -1.800798 0.211627 -0.757207 -0.090041
-1.070093 0.052905 -1.876307 0.206198 -0.642334 -0.074513
-1.066704 -0.307533 -1.211647 0.250021 -0.648602 -0.081606
-1.195640 -0.411147 -1.153773 0.253714 -0.667867 -0.087968
-1.196113 -0.217785 -1.230733 0.207381 -0.675994 -0.093868
-1.191386 -0.249921 -1.187307 0.181001 -0.655568 -0.084877
-1.079327 -0.431532 -0.756421 0.181478 -0.655215 -0.072485
-1.218712 -0.481040 -0.312987 0.164629 -0.619264 -0.047398
-1.238252 -0.399743 -0.457629 0.126570 -0.651490 -0.052920
-1.306565 -0.375509 0.038494 0.117202 -0.639038 -0.042923
-1.284391 -0.480671 1.033151 0.147604 -0.630894 -0.034700
-1.092960 -0.461585 1.755010 0.148564 -0.658140 -0.032239
-0.910932 -0.305695 2.696710 0.109054 -0.586222 -0.008916
-1.185300 -0.698596 3.520021 0.107622 -0.635852 -0.017163
-0.822486 -0.740068 4.467013 0.075225 -0.553391 -0.004355
-0.905487 -1.003221 5.097999 0.090115 -0.545927 0.003521
-0.879141 -1.306272 5.443602 0.091927 -0.562311 0.009077
-1.068414 -1.197293 5.428206 0.047063 -0.555840 0.021396
-1.249077 -1.677042 5.897744 0.098937 -0.622497 0.014635
-0.854915 -2.017549 6.073122 0.155326 -0.556108 0.035050
-0.869544 -1.913786 5.630010 0.150423 -0.615917 0.020192
-0.855442 -2.210434 5.586247 0.181504 -0.590960 0.016162
-0.905410 -2.663567 5.815265 0.215125 -0.591522 0.003697
-0.857424 -2.576227 5.638377 0.181366 -0.573696 0.005390
-0.641083 -2.468672 5.702288 0.162107 -0.573324 0.008418
-0.540343 -2.288247 6.133420 0.146589 -0.600350 0.010986
-0.552626 -2.041529 6.181304 0.112313 -0.615549 0.013375
-0.596300 -1.863738 6.870110 0.097396 -0.615122 0.012674
-0.483402 -2.122593 7.799458 0.106400 -0.592662 0.011032
-0.712844 -2.262706 8.697790 0.055354 -0.612205 -0.003275
-0.853073 -2.478812 9.693755 -0.000705 -0.622621 -0.019739
-0.871831 -2.703813 10.879129 -0.016953 -0.637287 -0.033539
-0.793413 -1.979877 11.208862 -0.123582 -0.644185 -0.042605
-0.733171 -1.641341 11.869332 -0.174825 -0.655576 -0.052834
-0.791619 -1.785013 12.778729 -0.192055 -0.646033 -0.058463
-0.965532 -1.770583 13.246152 -0.244792 -0.637561 -0.066749
-1.028120 -1.731725 13.293000 -0.256002 -0.628500 -0.072007
-1.040642 -2.071980 13.860480 -0.194741 -0.636175 -0.083447
-1.101019 -2.151843 14.297631 -0.184584 -0.652825 -0.095483
-1.174359 -2.121437 14.423496 -0.197918 -0.657008 -0.098455
-1.207203 -2.198081 14.847233 -0.199484 -0.652943 -0.095250
-1.170342 -2.239114 15.246056 -0.212937 -0.641257 -0.090345
-1.145343 -2.082374 15.517711 -0.254114 -0.640674 -0.085448
-1.096790 -1.900696 15.843760 -0.284799 -0.649387 -0.081212
-0.980470 -1.785086 16.228324 -0.302985 -0.634114 -0.073242
-0.985333 -1.624114 16.549342 -0.336704 -0.626645 -0.070976
-0.981930 -1.675023 17.013360 -0.343301 -0.605351 -0.070650
-1.028414 -1.817710 17.582249 -0.322956 -0.604615 -0.076041
-1.090473 -1.720671 17.874449 -0.329810 -0.614775 -0.081779
-1.154036 -1.735675 18.189595 -0.324354 -0.640856 -0.088416
-1.184767 -1.874049 18.658097 -0.311695 -0.663938 -0.094048
-1.202225 -1.823979 18.980338 -0.323141 -0.678924 -0.096401
-1.226002 -1.641359 19.171390 -0.335627 -0.697508 -0.098857
-1.229605 -1.545122 19.436591 -0.333977 -0.692467 -0.098621
-1.241655 -1.501840 19.676758 -0.343518 -0.676608 -0.098990
-1.229008 -1.479381 19.840376 -0.362949 -0.655407 -0.098066
-1.151380 -1.571435 20.091633 -0.357659 -0.640123 -0.096746
-1.119489 -1.615327 20.384860 -0.345182 -0.646624 -0.097231
-1.113240 -1.594195 20.642436 -0.345856 -0.659516 -0.099571
-1.155716 -1.699964 20.993718 -0.349446 -0.671315 -0.102582
-1.214137 -1.752518 21.412622 -0.355507 -0.682189 -0.106239
-1.220192 -1.693332 21.809146 -0.357560 -0.691193 -0.107176
-1.235512 -1.570548 22.298735 -0.358651 -0.701096 -0.108498
-1.251957 -1.518524 22.730522 -0.376441 -0.687670 -0.107674
-1.271071 -1.612909 23.373364 -0.396895 -0.662840 -0.106739
-1.182976 -1.728659 24.049746 -0.400272 -0.631514 -0.103600
-1.097460 -1.605350 24.732261 -0.401422 -0.624331 -0.101834
-1.095169 -1.555137 25.371064 -0.398734 -0.633830 -0.103638
-1.138492 -1.626665 26.107142 -0.417041 -0.640679 -0.106550
-1.207143 -1.730212 26.704840 -0.436679 -0.658506 -0.111659
-1.156391 -1.818924 27.407314 -0.422007 -0.666643 -0.111012
-1.186408 -1.841751 27.973712 -0.402326 -0.693842 -0.115353
-1.209501 -1.772247 28.144569 -0.418681 -0.702900 -0.117164
-1.230838 -1.812368 28.415043 -0.427462 -0.704887 -0.118806
-1.044867 -1.945201 28.634082 -0.421608 -0.683323 -0.118115
-1.034438 -1.896121 28.627898 -0.434878 -0.692525 -0.120116
-1.028896 -1.786824 28.531961 -0.452597 -0.695300 -0.120802
-1.010040 -1.802543 28.641410 -0.448841 -0.707157 -0.125242
-1.089704 -1.804913 28.774126 -0.454865 -0.727686 -0.130331
-1.258587 -1.856538 29.057311 -0.460548 -0.751616 -0.136377
-1.312590 -1.794376 29.685454 -0.474550 -0.757189 -0.139993
-1.402217 -1.883331 30.722225 -0.468988 -0.772717 -0.145835
-1.461185 -1.865584 32.015995 -0.494415 -0.759211 -0.145933
-1.526080 -1.935540 33.914732 -0.521245 -0.740357 -0.150987
-1.578168 -1.850181 35.426141 -0.570994 -0.690033 -0.145048
-1.734518 -1.657689 37.399046 -0.611871 -0.686728 -0.150872
-1.648266 -1.982056 39.810628 -0.598634 -0.638192 -0.145162
-1.526751 -2.215404 41.945429 -0.623458 -0.645262 -0.147850
-1.496537 -1.731808 42.295334 -0.719760 -0.667719 -0.146812
-1.569687 -2.450434 44.392688 -0.624499 -0.746548 -0.160335
-1.207771 -3.119864 45.906459 -0.562353 -0.710516 -0.157097
-1.482134 -3.213339 45.866128 -0.624523 -0.782999 -0.170453
-1.217753 -3.643700 46.172541 -0.628079 -0.779409 -0.166623
-0.710545 -4.257563 46.803428 -0.574718 -0.816951 -0.173428
-0.793761 -4.158258 46.855757 -0.589557 -0.876819 -0.172848
-0.373016 -3.814964 46.660926 -0.608282 -0.863603 -0.173109
-0.649163 -3.790766 46.723537 -0.570932 -0.912476 -0.177633
-0.600487 -3.736732 47.152714 -0.560644 -0.897096 -0.181204
-0.844863 -3.567619 47.203804 -0.577948 -0.903419 -0.180786
-0.436693 -3.495495 47.323310 -0.562311 -0.864260 -0.178907
-0.755235 -3.218541 47.626873 -0.554914 -0.945764 -0.188133
-0.688193 -3.150829 47.756076 -0.542989 -0.991114 -0.197628
-0.852138 -2.979282 47.958028 -0.586799 -1.011122 -0.196508
-0.491777 -3.119644 48.124273 -0.607153 -0.982543 -0.199320
-0.861271 -2.921441 48.355966 -0.640393 -1.060779 -0.211934
-0.765200 -2.602429 48.256026 -0.668605 -1.028583 -0.208253
-0.809588 -2.272418 48.070940 -0.698482 -1.034228 -0.213103
-0.938572 -2.072356 47.839903 -0.725257 -1.058930 -0.219784
-0.823408 -1.946733 47.711801 -0.720145 -0.996751 -0.208536
-0.955364 -1.778224 47.201679 -0.701147 -1.035504 -0.226027
-0.988874 -1.399150 46.542949 -0.724696 -0.997338 -0.223427
-0.956705 -1.446662 46.060156 -0.695520 -0.993304 -0.231793
-1.220398 -1.351273 45.490472 -0.686923 -1.001606 -0.232119
-1.442107 -1.129253 44.501446 -0.689591 -1.044014 -0.249675
-1.681370 -0.944036 43.495245 -0.676510 -1.090068 -0.266167
-0.831961 -0.785602 42.497929 -0.653801 -0.929391 -0.248376
-1.683845 -0.599276 41.545398 -0.624239 -1.096077 -0.275484
-1.194970 -0.458030 40.292159 -0.613181 -0.962062 -0.256720
-1.547215 -0.407878 39.140379 -0.587531 -0.997080 -0.266701
-1.583541 -0.231680 37.809946 -0.580559 -0.972385 -0.259815
-1.109769 -0.225236 36.613363 -0.531846 -0.900011 -0.253250
-1.550056 -0.019934 35.334199 -0.472127 -1.013442 -0.274536
-1.624685 0.397877 33.464927 -0.459882 -0.999500 -0.274389
-1.953484 0.644851 31.754810 -0.447012 -1.010813 -0.284301
-2.356653 0.448747 30.498011 -0.384858 -1.027003 -0.287005
-2.277390 0.870131 28.394556 -0.417734 -0.958418 -0.273683
-2.353712 0.879687 26.930060 -0.356653 -0.972918 -0.261404
-2.107251 0.798968 25.622344 -0.278001 -1.009348 -0.250674
-1.880454 1.267567 23.812180 -0.308375 -1.031524 -0.239269
-1.715185 1.057704 22.868630 -0.243852 -1.044448 -0.230650
-1.646669 0.877132 21.978565 -0.190219 -1.019980 -0.216561
-1.751142 1.239559 20.592974 -0.210707 -1.035055 -0.212899
-1.906655 0.939570 19.763852 -0.133975 -1.047954 -0.205298
-1.823690 0.835459 19.099264 -0.109099 -0.995062 -0.189272
-2.031445 1.033009 17.938472 -0.129337 -0.987152 -0.177361
-1.764337 0.633255 17.479300 -0.060903 -0.876146 -0.148972
-1.491046 0.516012 16.810862 -0.040640 -0.787076 -0.131791
-1.662837 0.576388 15.833194 -0.037849 -0.762583 -0.121893
-1.398443 0.368928 14.994931 0.016650 -0.691787 -0.108257
-1.388859 0.172557 14.242871 0.067261 -0.690569 -0.102147
-1.339985 0.398266 12.585096 0.039278 -0.671227 -0.093281
-1.419162 0.166964 11.390639 0.069558 -0.683732 -0.094807
-1.407241 -0.036908 10.232765 0.110274 -0.679997 -0.096980
-1.396502 -0.252437 9.133695 0.161592 -0.690318 -0.100349
-1.380109 -0.378936 7.716919 0.191107 -0.683703 -0.099804
-1.452719 -0.046826 6.239714 0.161459 -0.688782 -0.103851
-1.142465 -0.207011 4.735713 0.185194 -0.615583 -0.097085
-1.249859 -0.737591 4.415097 0.271731 -0.621921 -0.104936
-1.253972 -0.483701 2.981350 0.232687 -0.588221 -0.101052
-1.231417 -0.072345 1.622355 0.184654 -0.600153 -0.106463
-1.426885 -0.385061 1.361443 0.253252 -0.643541 -0.111676
-1.468177 -0.518774 1.172275 0.295794 -0.673954 -0.115104
-1.521549 -0.363420 0.312297 0.275599 -0.655052 -0.107331
-1.161809 -0.103499 -0.383893 0.240205 -0.601448 -0.105742
-1.805996 -0.549617 -0.079853 0.307979 -0.671273 -0.111195
-1.218080 -0.413711 -0.384459 0.287793 -0.578461 -0.100548
-1.851374 -0.181275 -0.735670 0.257805 -0.665647 -0.100117
-1.450871 -0.237078 -0.469247 0.267414 -0.597167 -0.084008
-1.025783 -0.244227 -0.363889 0.268409 -0.558483 -0.078460
-1.485341 0.010930 -0.307449 0.223138 -0.630393 -0.083664
-1.189594 -0.171176 0.077688 0.230842 -0.589770 -0.081235
-1.522553 -0.216344 0.439768 0.216641 -0.653154 -0.087132
-1.290749 -0.133328 0.666562 0.189728 -0.592684 -0.068241
-1.315379 -0.326604 0.981298 0.212633 -0.619957 -0.065690
-1.337219 -0.368774 1.241300 0.211553 -0.597688 -0.050782
-1.342527 -0.467962 1.223192 0.217577 -0.611425 -0.053523
-1.169129 -0.591083 1.282651 0.227305 -0.570109 -0.045280
-1.304006 -0.729921 1.408450 0.239985 -0.605836 -0.052919
-1.055584 -0.889807 1.352731 0.245991 -0.579248 -0.051762
-0.961682 -0.953770 1.349874 0.237175 -0.562764 -0.050869
-1.183447 -1.067299 1.277481 0.235303 -0.640794 -0.067686
-1.022320 -1.160061 1.249612 0.236296 -0.616288 -0.062836
-1.178857 -1.176822 1.324975 0.257417 -0.677097 -0.071241
-0.957216 -1.128798 1.164634 0.273620 -0.666819 -0.065741
-0.703684 -1.090164 1.059451 0.281400 -0.642347 -0.064161
-1.027295 -1.122865 1.078784 0.277228 -0.691869 -0.073958
-0.901947 -1.333163 1.168115 0.278021 -0.632867 -0.066267
-0.983259 -1.468636 1.274438 0.274804 -0.627210 -0.067468
-1.038520 -1.451744 1.305572 0.267791 -0.636478 -0.068597
-0.820673 -1.410834 1.351678 0.261570 -0.617409 -0.069568
-0.968352 -1.340504 1.527265 0.250196 -0.662776 -0.077790
-1.088931 -1.262949 1.714276 0.228576 -0.682650 -0.080466
-1.142561 -1.206709 1.830683 0.204698 -0.696455 -0.083291
-1.183760 -1.252108 2.122581 0.191680 -0.695327 -0.082879
-1.080292 -1.382864 2.392912 0.191064 -0.679514 -0.083007
-1.062516 -1.346333 2.618670 0.176315 -0.675006 -0.082927
-1.021426 -1.387100 2.951126 0.180179 -0.671873 -0.083473
-1.025438 -1.360787 3.338893 0.182205 -0.672458 -0.084316
-1.020182 -1.224240 3.655161 0.154105 -0.673323 -0.087446
-1.047921 -1.174320 4.127989 0.118315 -0.675789 -0.093279
-1.159278 -1.317218 4.843355 0.085922 -0.684290 -0.099415
-1.180192 -1.420488 5.945706 0.059293 -0.687733 -0.103819
-1.054675 -1.346813 6.809777 0.026801 -0.684536 -0.101247
-0.845460 -1.368311 8.261298 0.023474 -0.693539 -0.105561
-0.659843 -1.495708 9.688371 0.015224 -0.675021 -0.100769
-0.673946 -1.227711 11.093765 -0.079624 -0.653347 -0.102267
-1.093348 -1.569696 13.403042 -0.086473 -0.646111 -0.108816
-1.058750 -1.895690 15.893506 -0.091723 -0.533732 -0.100001
-1.282910 -1.398734 16.854038 -0.228830 -0.451988 -0.084899
-1.509213 -1.155616 19.150515 -0.307535 -0.409200 -0.077892
-1.295383 -2.168022 21.907965 -0.223831 -0.339946 -0.069893
-1.332143 -1.907576 22.908745 -0.326185 -0.333600 -0.069264
