fx fy fz tx ty tz 
-2.033624 0.418067 -0.342693 -0.368646 -0.684336 -0.143292
-2.047229 0.335675 -0.076965 -0.349746 -0.689346 -0.145357
-2.097895 -0.232406 -0.042829 -0.202029 -0.691745 -0.146783
-1.938527 0.281714 -1.322582 -0.231387 -0.653351 -0.137555
-2.024236 0.917709 -2.082251 -0.274135 -0.679901 -0.144267
-2.289828 0.500209 -1.685211 -0.168120 -0.715345 -0.152776
-1.968921 0.230542 -1.324347 -0.074917 -0.646638 -0.149397
-2.042365 0.606341 -1.723668 -0.093223 -0.658812 -0.152499
-2.224530 1.375492 -2.940189 -0.174829 -0.708983 -0.160938
-2.239207 0.650616 -1.901186 -0.024019 -0.727756 -0.169071
-2.087220 -0.237775 -1.816978 0.108454 -0.716328 -0.167834
-2.019568 0.930495 -2.570474 -0.031758 -0.732561 -0.167468
-2.375326 1.017803 -3.014062 -0.021232 -0.837251 -0.184307
-2.465984 0.147487 -2.429569 0.126770 -0.860989 -0.184282
-2.026944 0.358975 -2.105715 0.120957 -0.857902 -0.196792
-2.379230 0.013957 -2.647358 0.161768 -0.941404 -0.212212
-2.261271 0.995998 -2.859120 0.042360 -0.959240 -0.220354
-2.549132 0.257476 -2.697919 0.140482 -1.037011 -0.237083
-2.259273 0.610041 -2.999433 0.087842 -1.002993 -0.233519
-2.239372 0.878011 -2.481872 0.072706 -1.041170 -0.248148
-2.646499 1.114509 -3.839530 0.017105 -1.107712 -0.252818
-2.180077 0.709437 -2.812625 0.106487 -1.068906 -0.259673
-2.255999 0.860751 -3.136555 0.077866 -1.054837 -0.252326
-2.195548 0.124658 -2.761397 0.190770 -1.104188 -0.272501
-2.581967 0.918911 -2.995061 0.071381 -1.132390 -0.264454
-2.270238 0.139944 -2.639335 0.181609 -1.123579 -0.268496
-2.346166 0.555905 -2.779343 0.123040 -1.123122 -0.256814
-2.397656 0.151085 -2.372758 0.177090 -1.131738 -0.248422
-2.339712 0.975665 -3.131257 0.060322 -1.145380 -0.241928
-2.421487 0.550578 -2.846546 0.113702 -1.135574 -0.228871
-2.194509 0.759037 -2.309419 0.099567 -1.150790 -0.235397
-2.479351 0.505277 -3.060766 0.133279 -1.129926 -0.211008
-1.925661 0.932653 -2.417226 0.090297 -1.102762 -0.219246
-2.080613 0.971927 -3.401961 0.074915 -1.071027 -0.202438
-1.993194 0.374105 -2.223221 0.169976 -1.097472 -0.221798
-1.869689 0.819679 -3.180726 0.092416 -1.046174 -0.210483
-1.931746 0.465191 -2.857159 0.131486 -1.054092 -0.215581
-1.770095 0.729454 -2.972683 0.098424 -1.021232 -0.213833
-1.710575 0.648263 -3.307411 0.097914 -0.994911 -0.206568
-1.656483 0.421802 -2.501831 0.143727 -0.992089 -0.211231
-1.783760 0.785517 -3.026289 0.091640 -0.995601 -0.207463
-1.656074 0.023053 -2.771282 0.197785 -0.969796 -0.203383
-1.679895 0.309436 -2.182296 0.185437 -0.967016 -0.205273
-1.430269 0.600469 -2.981887 0.133836 -0.914042 -0.192373
-1.495417 -0.061914 -2.648272 0.236578 -0.922461 -0.195933
-1.426526 0.209380 -2.539378 0.190534 -0.900048 -0.191621
-1.368402 0.377038 -3.092872 0.151375 -0.879587 -0.184343
-1.366719 -0.143973 -2.229590 0.227425 -0.876175 -0.187823
-1.326753 0.236163 -2.522377 0.165667 -0.858726 -0.182345
-1.351700 0.169899 -2.572370 0.175516 -0.840485 -0.176984
-1.333092 0.222975 -2.668060 0.181831 -0.839980 -0.179509
-1.311744 0.480242 -2.984787 0.131335 -0.824188 -0.176148
-1.457015 0.076506 -2.416550 0.193646 -0.844942 -0.181402
-1.288123 0.428473 -2.790269 0.157378 -0.811321 -0.175403
-1.423373 0.624432 -3.082720 0.114987 -0.832863 -0.177611
-1.370778 0.330205 -2.536935 0.158704 -0.825373 -0.177868
-1.363950 0.497809 -2.868385 0.132214 -0.832866 -0.176939
-1.402664 0.250491 -2.755700 0.165444 -0.835163 -0.172750
-1.396823 0.234460 -1.977723 0.177982 -0.851259 -0.179574
-1.279751 0.516194 -3.088581 0.134063 -0.830016 -0.173722
-1.446417 0.027816 -2.206322 0.213747 -0.867144 -0.186842
-1.374643 0.482577 -2.591717 0.152245 -0.849753 -0.186537
-1.509263 0.146744 -2.427155 0.202946 -0.868868 -0.190521
-1.522380 0.104123 -2.205230 0.203160 -0.883188 -0.194389
-1.646171 0.179018 -2.700359 0.187291 -0.888806 -0.189472
-1.480079 0.344878 -2.122437 0.184890 -0.872398 -0.192501
-1.503332 0.381647 -2.898644 0.160623 -0.872447 -0.189674
-1.513358 0.068848 -2.257091 0.217886 -0.871522 -0.193459
-1.515142 0.227915 -2.813294 0.204249 -0.871962 -0.194872
-1.582579 0.319101 -2.539680 0.210182 -0.877986 -0.198760
-1.783446 -0.082645 -2.593590 0.265129 -0.918381 -0.206797
-1.525107 0.243820 -2.520597 0.220606 -0.857826 -0.195756
-1.605283 0.218853 -2.654000 0.220316 -0.903231 -0.207232
-1.666549 0.489721 -2.899146 0.167700 -0.882189 -0.194070
-1.608676 0.716606 -2.786058 0.133852 -0.914003 -0.207854
-2.021396 -0.047075 -2.339955 0.233763 -0.948257 -0.207858
-1.559460 0.296104 -2.598121 0.186471 -0.890599 -0.204592
-1.766419 0.894317 -2.986325 0.109329 -0.926054 -0.211888
-1.665745 0.599171 -2.738496 0.167804 -0.928014 -0.202340
-1.782573 0.741019 -2.858398 0.148931 -0.951415 -0.204854
-1.936350 0.793717 -2.861694 0.138489 -0.975188 -0.206337
-2.048190 0.759161 -2.821413 0.142386 -0.985149 -0.205449
-1.915179 0.462148 -2.388227 0.187518 -0.969415 -0.204362
-1.675413 -0.308725 -1.823518 0.288623 -0.933971 -0.202943
-1.684245 0.496997 -2.503985 0.170043 -0.946163 -0.205092
-1.984351 1.189914 -3.084823 0.073920 -1.003138 -0.212837
-1.993622 0.585273 -2.656495 0.158289 -0.995612 -0.209815
-1.678934 0.099313 -2.156915 0.234150 -0.942002 -0.201043
-1.759470 0.483919 -2.503605 0.186807 -0.957447 -0.198304
-1.919714 0.694884 -2.786076 0.160057 -0.980974 -0.196922
-1.760046 0.429544 -2.667649 0.196692 -0.949934 -0.191854
-1.588493 -0.001595 -2.274305 0.259713 -0.921750 -0.191023
-1.785356 0.380974 -2.799023 0.201763 -0.954693 -0.196473
-1.919420 0.497225 -2.843507 0.187195 -0.974481 -0.200720
-1.865099 0.351833 -2.739752 0.205615 -0.966016 -0.201836
-1.777286 -0.069466 -2.368788 0.260947 -0.959548 -0.203702
-1.749138 0.128980 -2.454484 0.238175 -0.955207 -0.200972
-1.835275 0.531758 -2.955951 0.186148 -0.976548 -0.201962
-1.821126 0.499281 -2.812608 0.198325 -0.973576 -0.199490
-1.744689 0.113315 -2.323858 0.257252 -0.958730 -0.197533
-1.702346 -0.011693 -2.376510 0.277906 -0.959624 -0.198515
-1.724264 0.325225 -2.811287 0.224154 -0.962733 -0.198158
-1.732069 0.308471 -2.822267 0.217373 -0.969350 -0.200687
-1.701816 0.065152 -2.516247 0.250686 -0.961961 -0.200719
-1.671635 0.029567 -2.426577 0.249824 -0.956931 -0.198763
-1.757519 0.233440 -2.666483 0.225474 -0.969655 -0.199259
-1.798351 0.350124 -2.666439 0.216417 -0.971283 -0.196731
-1.744960 0.214669 -2.515758 0.243551 -0.960133 -0.194616
-1.699021 0.097238 -2.311769 0.273279 -0.952939 -0.195387
-1.728950 0.122376 -2.583845 0.262501 -0.955697 -0.196735
-1.739533 0.347520 -2.597337 0.230349 -0.954759 -0.198004
-1.723212 0.089761 -2.598609 0.255679 -0.950349 -0.198886
-1.678832 -0.115699 -2.253408 0.280584 -0.937191 -0.197974
-1.675048 -0.303767 -2.219058 0.299089 -0.935990 -0.197994
-1.647215 -0.073787 -2.425160 0.263643 -0.928489 -0.196164
-1.660185 -0.131303 -2.372395 0.271946 -0.931520 -0.197768
-1.692053 -0.443088 -2.100843 0.320734 -0.933443 -0.199089
-1.691349 -0.579263 -2.001497 0.343893 -0.928601 -0.198414
-1.705882 -0.366595 -2.211728 0.316528 -0.930505 -0.198159
-1.713775 -0.384806 -2.212342 0.320238 -0.930000 -0.198007
-1.675794 -0.663690 -1.968735 0.353129 -0.917671 -0.194197
-1.617368 -0.595168 -1.816096 0.325272 -0.902224 -0.189749
-1.657293 -0.364690 -1.940557 0.262490 -0.905573 -0.187541
-1.653258 -0.298839 -1.823202 0.222447 -0.892245 -0.182587
-1.585938 -0.431362 -1.596789 0.219439 -0.873696 -0.180206
-1.529911 -0.618759 -1.355656 0.223127 -0.851629 -0.177138
-1.531977 -0.546739 -1.479546 0.185686 -0.842693 -0.175152
-1.528984 -0.321273 -1.479185 0.129949 -0.830372 -0.173216
-1.554457 -0.375448 -1.371499 0.110401 -0.830185 -0.175484
-1.573727 -0.569042 -0.958326 0.117987 -0.817983 -0.176091
-1.535365 -0.405720 -0.957216 0.073646 -0.797813 -0.176269
-1.539365 -0.032838 -1.234422 0.004182 -0.783256 -0.177482
-1.543859 0.083423 -1.184694 -0.030587 -0.773131 -0.178666
-1.563150 -0.249250 -0.582037 -0.002959 -0.759244 -0.177288
-1.433393 -0.148067 -0.548290 -0.042544 -0.728434 -0.172059
-1.480317 -0.124223 -0.646766 -0.075086 -0.725440 -0.171932
-1.497413 0.122683 -0.964696 -0.135489 -0.703267 -0.167897
-1.292907 0.437270 -1.129193 -0.201036 -0.652789 -0.164427
-1.367821 0.181498 -0.664919 -0.161136 -0.647985 -0.170443
-1.350329 -0.356952 -0.416658 -0.091782 -0.601688 -0.163490
-1.247642 -0.267431 -0.199916 -0.097018 -0.565434 -0.160590
-1.408804 0.339009 -0.910121 -0.188953 -0.543850 -0.149194
-1.354226 0.390464 -0.799887 -0.195950 -0.528244 -0.146131
-1.288128 0.027617 -0.375279 -0.156064 -0.500942 -0.139711
-1.259632 -0.310207 -0.085497 -0.129348 -0.473878 -0.131344
-1.278089 -0.032260 -0.230090 -0.184814 -0.469874 -0.128841
-1.316623 0.471391 -0.927479 -0.275731 -0.462415 -0.124492
-1.165226 0.530050 -0.995268 -0.285681 -0.435526 -0.123587
-1.255571 -0.235862 -0.174838 -0.175258 -0.441380 -0.131267
-1.063167 -0.414070 -0.158407 -0.144280 -0.404379 -0.133837
-1.147315 -0.086846 -0.183738 -0.176874 -0.417548 -0.147502
-1.330284 0.101105 -0.558665 -0.197946 -0.443825 -0.160331
-1.309545 -0.099849 -0.498372 -0.157148 -0.435251 -0.168100
-1.296227 -0.268251 -0.430052 -0.118046 -0.429675 -0.174576
-1.374376 -0.249695 -0.420979 -0.119525 -0.439199 -0.181650
-1.372633 -0.075152 -0.663203 -0.156728 -0.433996 -0.184459
-1.320052 -0.122717 -0.626522 -0.159096 -0.425506 -0.188166
-1.332102 -0.340453 -0.540075 -0.138464 -0.428541 -0.191613
-1.316583 -0.429822 -0.537479 -0.130530 -0.420940 -0.191053
-1.238050 -0.536078 -0.447591 -0.116067 -0.409501 -0.189650
-1.191638 -0.595166 -0.426022 -0.104224 -0.400040 -0.187156
-1.155724 -0.750290 -0.465040 -0.072538 -0.392042 -0.183759
-1.178244 -0.881906 -0.405574 -0.035356 -0.392800 -0.182049
-1.226980 -0.803918 -0.595165 -0.027442 -0.396356 -0.179825
-1.306221 -0.687673 -0.690292 -0.024704 -0.407364 -0.179089
-1.308951 -0.718267 -0.629143 -0.006403 -0.401283 -0.174843
-1.256468 -0.736607 -0.543714 0.001316 -0.389136 -0.169213
-1.232902 -0.636850 -0.740778 -0.017013 -0.382239 -0.161561
-1.184080 -0.489676 -0.586270 -0.051209 -0.368172 -0.152585
-1.114207 -0.612672 -0.482795 -0.055476 -0.351310 -0.142235
-1.093323 -0.738558 -0.490593 -0.064879 -0.344515 -0.133782
-1.025861 -0.668713 -0.309495 -0.095090 -0.331411 -0.127844
-1.013226 -0.596176 -0.356695 -0.125764 -0.323024 -0.123312
-0.979125 -0.449358 -0.363421 -0.155869 -0.314299 -0.121945
-1.064817 -0.468441 -0.196851 -0.143258 -0.321151 -0.123424
-1.142869 -0.778779 -0.002686 -0.090813 -0.320105 -0.122347
-1.172421 -0.554311 -0.085584 -0.114389 -0.314691 -0.119899
-1.101960 0.341257 -0.733651 -0.231757 -0.289335 -0.109687
-1.236270 0.072722 -0.534673 -0.198265 -0.294694 -0.103753
-1.063876 -0.629383 0.864348 -0.092636 -0.249821 -0.092406
-0.944022 -0.544101 -0.219993 -0.138316 -0.200706 -0.072057
-0.774643 0.552087 -0.685534 -0.303921 -0.171197 -0.064520
-1.002747 -0.049555 0.492533 -0.208024 -0.199031 -0.072241
-0.768824 -0.761141 -0.183717 -0.140083 -0.104796 -0.048045
-0.521028 -0.612950 0.657124 -0.143599 -0.091061 -0.056796
-0.871409 0.181402 -0.681866 -0.242706 -0.088744 -0.039957
-0.673874 -0.237178 0.071610 -0.164574 -0.075969 -0.044348
-1.002769 -0.728040 -0.280219 -0.124593 -0.102509 -0.039252
-0.834853 -0.834045 0.879836 -0.092858 -0.066355 -0.030729
-0.973639 -0.125965 -0.000268 -0.216794 -0.088882 -0.029945
-0.840688 0.057189 0.096911 -0.266552 -0.031784 -0.011053
-0.785075 -0.244184 -0.183109 -0.239750 -0.031983 -0.009952
-0.700702 -0.022046 0.360186 -0.251378 0.017442 0.006645
-0.586398 -0.189287 0.064643 -0.234351 0.033865 0.018344
-0.678725 -0.272649 0.209209 -0.234900 0.036792 0.026513
-0.396887 -0.518363 -0.127455 -0.192477 0.069034 0.039801
-0.770315 -1.034942 0.381021 -0.132041 0.015730 0.040250
-0.307964 -0.709000 0.840214 -0.167385 0.085193 0.050416
-0.732220 -0.282614 0.347926 -0.230019 0.063700 0.063249
-0.634570 -0.178437 0.468453 -0.238922 0.038566 0.055248
-0.777366 -0.582515 1.058833 -0.188905 0.062269 0.067879
-0.651798 -0.730619 0.452478 -0.207547 0.104043 0.083612
-0.399605 -0.092373 -0.429450 -0.280739 0.114007 0.083455
-0.587147 0.186128 -0.997421 -0.300854 0.090456 0.090150
-0.310179 -0.363282 0.216709 -0.243759 0.115805 0.090091
-0.401020 -0.958385 0.890384 -0.134170 0.121263 0.095391
-0.367689 -0.777028 0.860708 -0.160836 0.135524 0.100520
-0.590226 -0.234362 0.270408 -0.251813 0.091550 0.095204
-0.617487 -0.551967 0.531731 -0.224968 0.065135 0.082346
-0.501760 -0.851600 0.174074 -0.184394 0.138868 0.096308
-0.325921 -0.423407 0.451418 -0.258198 0.159012 0.091322
-0.643350 0.839707 -1.656628 -0.431636 0.101536 0.080152
-0.688165 0.091913 -0.146131 -0.323241 0.096790 0.073498
-0.381513 -1.115927 1.054898 -0.155264 0.137262 0.070370
-0.545501 -0.809192 0.710025 -0.207332 0.152909 0.077982
-0.564493 -0.298393 1.266393 -0.258132 0.076535 0.060154
-0.867790 -0.710534 0.107143 -0.216908 0.068190 0.072448
0.022702 -0.684223 0.343996 -0.223941 0.216759 0.098110
-0.346735 0.063945 -0.277971 -0.352743 0.127164 0.090220
-0.524379 0.484670 -0.286234 -0.398826 0.105673 0.090526
-0.395103 -0.567701 0.521066 -0.267668 0.129525 0.096563
-0.392756 -0.760761 0.447004 -0.249684 0.159398 0.103770
-0.647513 -0.548235 1.278397 -0.266193 0.089271 0.085513
-0.778230 -0.192679 0.288477 -0.320715 0.120275 0.098291
-0.187518 -0.365904 0.182577 -0.302619 0.229419 0.108767
-0.302267 0.078170 -0.350796 -0.362016 0.193818 0.097428
-0.569032 -0.320682 0.194128 -0.287178 0.139422 0.081744
-0.451053 -0.612121 0.540379 -0.264764 0.156164 0.080930
-0.536456 -0.821315 1.879291 -0.272856 0.124983 0.072183
-0.663434 -0.889750 3.767519 -0.349119 0.057811 0.064922
-0.637761 -1.288416 5.933924 -0.426120 0.070144 0.068943
-0.259972 -1.507397 9.071127 -0.529917 0.113238 0.069826
-0.839333 -1.531786 11.871976 -0.718936 0.046053 0.049580
-1.155730 -2.400666 15.154131 -0.687135 0.034304 0.036901
-1.526528 -3.963407 17.829464 -0.612991 0.040860 0.022656
-1.097287 -5.303030 19.134916 -0.617290 0.143990 0.021482
-1.314416 -5.551744 18.641526 -0.681022 0.111753 0.011393
-0.799285 -6.022578 18.753788 -0.614388 0.125618 0.006793
-0.626679 -6.457633 16.330850 -0.514673 0.062263 0.005044
-0.334754 -5.824507 15.073661 -0.475217 0.025103 0.002985
-0.545064 -5.227173 12.178565 -0.410658 -0.087373 -0.009139
-0.628412 -5.192076 9.835656 -0.224776 -0.094619 -0.003620
-0.333800 -4.019665 6.958651 -0.109528 -0.064437 -0.008440
-1.157128 -3.271534 4.330654 -0.014060 -0.189006 -0.026855
-1.052986 -3.151210 3.077695 0.149677 -0.181459 -0.031253
-0.816565 -3.473953 2.530664 0.365281 -0.131049 -0.031656
-0.929814 -3.184800 1.895390 0.453690 -0.129571 -0.035506
-0.769342 -2.943257 1.166181 0.479815 -0.113595 -0.033928
-0.481824 -2.315787 0.009491 0.408312 -0.049684 -0.019342
-0.140200 -2.089322 0.059704 0.385231 0.012536 -0.010566
-0.468712 -2.107735 1.154033 0.376736 -0.026063 -0.017290
-0.462991 -2.103351 1.895821 0.303236 0.043967 -0.000970
-0.642612 -1.363633 2.040892 0.077694 0.065205 0.000668
-1.305263 -2.170696 4.309231 0.036239 0.043854 -0.007266
-1.416773 -3.210393 6.975528 0.042935 0.109849 0.005913
-1.191606 -2.557096 8.247803 -0.118026 0.144538 0.014244
-1.395484 -1.892276 9.417603 -0.211800 0.053602 0.014175
-1.261338 -1.759325 11.245531 -0.192737 0.029258 0.019809
-1.120513 -1.640939 12.768636 -0.211143 0.047605 0.017928
-1.351081 -1.371665 13.178210 -0.323330 0.072735 0.012130
-1.722934 -1.031480 13.312153 -0.457168 0.086889 0.007414
-1.712449 -1.549589 13.853754 -0.415251 0.110241 0.006144
-1.382075 -1.801793 13.875760 -0.364115 0.117015 0.010932
-1.283109 -1.428169 13.081607 -0.378236 0.030094 0.001637
-1.049300 -0.838540 11.903201 -0.390045 -0.021582 0.002086
-0.735054 -0.843576 11.353024 -0.310352 -0.058603 -0.000368
-0.676017 -0.689911 10.524645 -0.273339 -0.108210 -0.010747
-0.819911 -0.271336 9.520678 -0.284286 -0.122711 -0.017366
-1.100896 -0.110343 8.734880 -0.290253 -0.154881 -0.027782
-1.164318 -0.063277 8.237570 -0.277049 -0.137858 -0.023261
-1.047571 0.171578 7.788906 -0.272795 -0.132354 -0.018718
-1.042797 0.478256 7.521319 -0.267112 -0.154480 -0.013454
-0.831678 0.947627 7.298522 -0.276692 -0.142822 -0.004570
-0.599582 1.314811 7.360076 -0.284126 -0.126933 0.001317
-0.498267 1.337865 7.707352 -0.280330 -0.132740 -0.001441
-0.465522 1.401887 8.255126 -0.321350 -0.107121 -0.000367
-0.704149 1.442638 8.696968 -0.370362 -0.120912 -0.005833
-0.978309 1.240294 9.335609 -0.376168 -0.150140 -0.013101
-1.155806 1.407049 10.267392 -0.387259 -0.184246 -0.019828
-1.340033 1.542404 11.049138 -0.367896 -0.256360 -0.029799
-1.349148 1.674489 11.554173 -0.359901 -0.267234 -0.031137
-1.371043 1.774204 12.224209 -0.360486 -0.272899 -0.034306
-1.450187 1.669298 12.967154 -0.357335 -0.264379 -0.036111
-1.442356 1.313348 13.971279 -0.318275 -0.234717 -0.035700
-1.382167 1.041221 15.044189 -0.282076 -0.215116 -0.037647
-1.386056 1.065436 15.757292 -0.272829 -0.227061 -0.043370
-1.333234 1.109214 16.495399 -0.266302 -0.227842 -0.049071
-1.352921 0.916328 17.685628 -0.238102 -0.234814 -0.058606
-1.440307 0.680557 18.549699 -0.231430 -0.232096 -0.065477
-1.567119 0.892778 19.227125 -0.284200 -0.241398 -0.074624
-1.774953 0.763618 20.362803 -0.273176 -0.279763 -0.087700
-1.773901 0.472766 21.459456 -0.242994 -0.275666 -0.090243
-1.769671 0.491606 22.316023 -0.251883 -0.289780 -0.095804
-1.812478 0.463220 22.939357 -0.267484 -0.310552 -0.097663
-1.680727 0.377096 23.385074 -0.278966 -0.309721 -0.097745
-1.505925 0.020726 24.468987 -0.258753 -0.332069 -0.105439
-1.558274 -0.144205 24.846440 -0.238730 -0.354469 -0.110205
-1.395611 -0.338826 25.528663 -0.220683 -0.339352 -0.106477
-1.094523 -0.189512 25.376101 -0.262533 -0.329604 -0.104598
-1.213076 0.038362 25.514031 -0.309911 -0.403976 -0.116818
-1.189421 -0.284843 26.164847 -0.283614 -0.434274 -0.118649
-1.051443 -0.577003 26.766177 -0.266159 -0.445095 -0.118848
-1.155770 -0.381512 26.833983 -0.313035 -0.501925 -0.126033
-1.269123 -0.233193 26.932068 -0.345445 -0.541258 -0.128200
-1.179401 -0.450560 27.562604 -0.317974 -0.542710 -0.130023
-1.193993 -0.750665 28.310765 -0.283151 -0.565315 -0.137054
-1.212805 -0.751137 28.691279 -0.300551 -0.583188 -0.139997
-1.050546 -0.454089 28.481327 -0.361069 -0.588951 -0.139598
-1.078749 -0.649964 29.066996 -0.342197 -0.646748 -0.148815
-0.782885 -0.950168 29.743429 -0.309599 -0.636858 -0.146904
-0.815303 -0.816531 29.832722 -0.342467 -0.678468 -0.154063
-0.931366 -0.446033 29.460986 -0.409356 -0.737231 -0.165773
-0.974514 -0.436187 29.605385 -0.410912 -0.739010 -0.167889
-0.922411 -0.580816 29.730965 -0.388374 -0.749948 -0.179525
-1.199583 -0.598738 29.736614 -0.384084 -0.789225 -0.189050
-1.297831 -0.407119 29.519266 -0.406868 -0.800442 -0.192831
-1.343923 -0.289558 29.365583 -0.405762 -0.827656 -0.197142
-1.121491 -0.433256 29.556458 -0.371722 -0.806061 -0.192822
-1.260228 -0.471548 29.706398 -0.361643 -0.856704 -0.203374
-1.198212 -0.268278 29.651268 -0.391674 -0.834471 -0.200031
-1.167099 -0.195002 29.908960 -0.384967 -0.842946 -0.209591
-1.143583 -0.109156 30.193347 -0.369657 -0.838991 -0.213378
-1.319739 0.144318 30.277668 -0.385854 -0.853500 -0.216850
-1.601240 0.371927 30.264124 -0.416567 -0.877382 -0.221759
-1.562712 0.295620 30.540644 -0.404133 -0.839245 -0.216677
-1.660668 0.398520 30.778780 -0.380189 -0.845629 -0.214899
-1.555709 0.570474 30.642593 -0.379705 -0.838523 -0.214480
-1.582995 0.751557 30.474782 -0.374961 -0.847545 -0.216496
-1.344949 0.773910 30.320725 -0.362173 -0.809163 -0.211169
-1.618339 0.673733 30.119754 -0.336562 -0.861528 -0.216852
-1.248317 0.661984 29.622459 -0.320749 -0.805355 -0.207679
-1.112778 0.767512 28.824260 -0.315559 -0.780862 -0.200867
-1.384972 0.700949 28.302045 -0.284219 -0.845266 -0.212815
-1.545898 0.643467 27.738358 -0.264723 -0.835426 -0.208139
-1.352959 0.697882 26.930356 -0.272310 -0.805682 -0.207547
-1.642530 0.876337 26.125201 -0.295369 -0.865892 -0.215802
-1.603574 0.915749 25.406526 -0.281812 -0.876927 -0.217399
-1.324320 1.024464 24.605129 -0.254567 -0.847310 -0.217119
-1.467039 1.176642 23.772860 -0.212011 -0.883230 -0.230223
-1.671904 1.273250 22.975146 -0.170357 -0.911723 -0.241618
-1.494236 1.355756 22.012031 -0.157380 -0.836396 -0.232768
-1.570775 1.423459 21.127840 -0.162630 -0.830470 -0.236392
-1.733658 1.362199 20.383960 -0.158896 -0.834508 -0.236208
-1.857587 1.413052 19.724841 -0.157627 -0.826931 -0.232540
-2.014001 1.566083 19.124960 -0.155708 -0.845883 -0.236894
-2.201702 1.870680 18.409728 -0.171417 -0.886305 -0.246396
-2.114765 2.183526 18.019708 -0.194498 -0.890266 -0.251317
-1.922082 2.354857 17.926850 -0.190400 -0.893013 -0.257104
-1.820532 2.464075 18.079319 -0.175228 -0.883634 -0.253063
-1.705849 2.456276 18.332353 -0.145264 -0.857371 -0.245091
-1.757766 2.578027 18.259399 -0.160265 -0.832553 -0.235007
-1.738576 2.512144 18.520445 -0.170516 -0.800321 -0.229822
-1.647728 2.114386 19.075375 -0.155888 -0.748163 -0.221794
-1.579149 1.733811 19.564972 -0.149826 -0.713287 -0.213557
-1.637817 1.699967 19.632121 -0.162432 -0.705627 -0.205443
-1.658529 1.751321 19.581175 -0.171114 -0.701384 -0.198649
-1.769234 1.566255 19.714671 -0.146318 -0.728295 -0.198935
-1.751737 1.468207 19.726271 -0.142487 -0.724078 -0.193454
-1.767430 1.335226 19.682578 -0.145593 -0.728499 -0.190611
-1.801402 1.169625 19.315455 -0.158033 -0.717249 -0.185318
-1.786964 0.932293 19.129544 -0.137272 -0.709139 -0.186246
-1.848722 0.837999 18.481544 -0.107607 -0.721119 -0.188654
-1.843880 0.952435 17.749843 -0.077959 -0.729568 -0.188621
-1.801222 1.029165 17.035819 -0.049212 -0.738648 -0.187111
-1.676841 0.919925 16.248883 -0.031376 -0.721706 -0.182835
-1.642544 0.717665 15.671318 -0.024824 -0.706446 -0.180800
-1.613131 0.662858 14.894062 -0.035759 -0.692187 -0.177027
-1.596671 0.729683 14.251236 -0.032015 -0.702876 -0.173141
-1.477555 0.880156 13.768175 -0.016581 -0.707281 -0.162441
-1.238776 0.964988 13.342819 -0.007709 -0.688778 -0.145291
-1.131424 1.110132 13.208809 -0.020659 -0.679618 -0.129647
-1.042702 1.051610 13.198390 -0.014776 -0.682331 -0.118517
-0.860755 0.927731 13.348763 0.000898 -0.644555 -0.099582
-0.866406 0.962005 13.404202 -0.001465 -0.638910 -0.095075
-1.024390 0.930625 13.635697 0.010065 -0.654803 -0.093429
-1.132285 0.833645 13.911830 0.020053 -0.642860 -0.087851
-1.126217 0.735319 14.301495 0.015791 -0.606899 -0.084230
-1.260572 0.679547 14.601284 -0.006008 -0.597916 -0.084225
-1.368382 0.767361 14.763681 -0.052164 -0.603289 -0.088000
-1.397752 0.732803 15.103013 -0.063514 -0.610777 -0.091634
-1.336716 0.670182 15.592112 -0.051792 -0.623411 -0.096685
-1.322732 0.783421 15.770614 -0.060550 -0.633151 -0.101170
-1.332854 0.879654 15.958234 -0.073252 -0.640685 -0.109037
-1.275795 0.822934 16.186501 -0.075193 -0.629830 -0.114082
-1.277219 0.595121 16.558094 -0.056842 -0.628342 -0.120913
-1.319233 0.459886 16.774035 -0.045414 -0.632762 -0.126056
-1.373352 0.484263 16.846061 -0.046638 -0.641048 -0.130033
-1.396139 0.479744 16.944290 -0.039653 -0.646677 -0.132568
-1.383465 0.456533 17.158895 -0.029013 -0.649339 -0.134215
-1.366477 0.487753 17.300716 -0.028512 -0.651621 -0.135868
-1.347006 0.592829 17.322889 -0.042211 -0.647769 -0.135595
-1.325039 0.607742 17.418801 -0.047406 -0.644359 -0.135292
-1.317025 0.597243 17.557206 -0.049732 -0.638778 -0.134365
-1.312098 0.587496 17.715915 -0.053795 -0.635006 -0.133511
-1.318233 0.601668 17.874002 -0.058768 -0.633161 -0.132202
-1.286956 0.588137 18.143750 -0.059436 -0.627321 -0.130195
-1.306280 0.513886 18.448698 -0.049252 -0.633600 -0.129891
-1.295054 0.494952 18.814403 -0.048732 -0.632691 -0.128637
-1.330144 0.448864 19.235631 -0.049052 -0.639965 -0.129837
-1.364030 0.370490 19.680457 -0.052026 -0.642662 -0.130480
-1.368839 0.314388 20.149860 -0.061510 -0.641121 -0.132132
-1.393790 0.265367 20.597012 -0.071507 -0.638495 -0.136588
-1.429777 0.204409 21.002441 -0.074940 -0.631677 -0.141815
-1.433847 0.206478 21.259839 -0.078824 -0.622280 -0.145321
-1.455295 0.172819 21.349370 -0.075724 -0.611794 -0.145846
-1.448350 0.275627 21.293239 -0.094345 -0.594200 -0.145371
-1.528910 0.160664 21.212182 -0.088785 -0.596422 -0.144674
-1.518712 -0.004365 21.114829 -0.076488 -0.600414 -0.144519
-1.496487 -0.013839 20.571276 -0.097599 -0.595320 -0.140392
-1.559243 0.039347 19.792790 -0.125051 -0.627208 -0.145885
-1.583990 -0.031302 19.315931 -0.099614 -0.654620 -0.149402
-1.478395 -0.005973 18.524227 -0.054637 -0.678805 -0.150672
-1.441002 0.446990 17.125598 -0.062309 -0.705103 -0.152250
-1.488260 0.754414 15.994318 -0.056237 -0.743623 -0.158134
-1.518095 0.760487 14.884939 -0.028982 -0.761839 -0.161099
-1.486886 0.537705 14.101015 0.013825 -0.754889 -0.163147
-1.558077 0.667775 12.861084 0.004665 -0.761480 -0.166205
-1.581911 1.081266 11.412801 -0.028485 -0.769031 -0.164503
-1.556581 1.037095 10.795769 0.026555 -0.803723 -0.165828
-1.449071 0.949310 10.112873 0.089517 -0.807739 -0.156841
-1.356090 1.267355 9.293198 0.059208 -0.806200 -0.152867
-1.476849 1.550767 8.433294 0.039262 -0.849991 -0.154976
-1.471305 1.287768 8.230998 0.092228 -0.874685 -0.155703
-1.208185 1.118073 7.961425 0.134736 -0.852966 -0.150598
-1.427681 1.456354 7.094004 0.106028 -0.924473 -0.159896
-1.546307 1.687127 6.419548 0.093463 -0.957024 -0.161553
-1.562067 1.556068 6.193184 0.136997 -0.957929 -0.161205
-1.578998 1.297588 6.066832 0.191320 -0.949124 -0.160644
-1.641063 1.619480 5.276244 0.157378 -0.936010 -0.157974
-1.719090 1.939432 4.203484 0.117529 -0.917849 -0.152234
-1.793156 1.616937 4.068454 0.174700 -0.917581 -0.154471
-1.791991 1.308166 3.684038 0.225596 -0.882570 -0.147315
-1.767575 1.710750 2.339331 0.171450 -0.877533 -0.146345
-1.909179 1.900716 0.999654 0.144287 -0.904578 -0.148402
-1.720387 1.434954 0.710198 0.215541 -0.876429 -0.145312
-1.721270 0.716176 0.786561 0.318245 -0.891742 -0.150944
-1.801778 0.987990 -0.899226 0.255416 -0.902923 -0.148979
-2.052559 1.441498 -2.701667 0.144466 -0.968756 -0.164697
-2.094660 0.991893 -2.297694 0.195943 -0.973028 -0.166953
-1.923818 0.115851 -1.888236 0.295790 -0.918644 -0.158924
-1.770868 0.678585 -3.080182 0.199093 -0.888643 -0.154054
-2.104721 1.359918 -3.615580 0.107439 -0.964626 -0.169642
-1.906375 0.311358 -2.922335 0.241635 -0.896935 -0.157616
-1.494390 0.140938 -2.850561 0.264653 -0.816309 -0.149768
-1.813097 0.330360 -2.484481 0.258413 -0.889420 -0.169043
-1.690580 0.469596 -3.245701 0.224980 -0.828808 -0.156843
-1.382292 0.615250 -3.377921 0.204150 -0.784084 -0.157522
-1.828515 -0.087845 -2.475850 0.307562 -0.873309 -0.176569
-1.625063 0.347858 -3.155964 0.233116 -0.800623 -0.157968
-1.943942 0.249638 -3.012049 0.238012 -0.894833 -0.175183
-1.824755 0.141055 -3.023697 0.248664 -0.856296 -0.166648
-1.414006 0.415485 -3.288831 0.203670 -0.780060 -0.155321
-1.717778 0.388008 -2.784205 0.226880 -0.877202 -0.179713
-1.791695 -0.112309 -2.875553 0.293699 -0.861310 -0.174700
-1.394012 0.576385 -3.435437 0.202503 -0.781110 -0.161497
-1.738569 0.150607 -2.807782 0.270972 -0.877019 -0.180447
-1.608812 -0.241793 -2.555442 0.318582 -0.820157 -0.162808
-1.274607 0.595592 -3.377848 0.198269 -0.775706 -0.154794
-1.678322 0.221406 -2.953502 0.251531 -0.878572 -0.175084
-1.593536 0.244495 -3.183864 0.238093 -0.827165 -0.161597
-1.476181 0.558935 -3.314803 0.200279 -0.852989 -0.172769
-1.776243 0.009427 -2.852382 0.282715 -0.905827 -0.180883
-1.532195 0.240904 -3.308265 0.252404 -0.840750 -0.165383
-1.569031 0.325117 -3.002951 0.258268 -0.893643 -0.179299
-1.648495 -0.151317 -2.883024 0.331808 -0.879593 -0.169356
-1.438284 0.348381 -3.359129 0.263126 -0.841987 -0.159057
-1.610216 0.182375 -3.024141 0.286006 -0.907872 -0.171995
-1.610135 0.001187 -3.035748 0.290528 -0.869865 -0.159400
-1.446145 0.622063 -3.355271 0.196423 -0.875282 -0.164436
-1.665096 0.168160 -3.161340 0.249120 -0.912292 -0.169088
-1.603104 0.249000 -3.131143 0.229909 -0.881229 -0.160855
-1.548107 0.585621 -3.093527 0.194208 -0.908341 -0.171100
-1.737018 -0.088303 -2.842969 0.283233 -0.920609 -0.169464
-1.570462 0.300195 -3.097165 0.239096 -0.882702 -0.161137
-1.657074 0.350327 -2.927511 0.247248 -0.924057 -0.172493
-1.700222 -0.180758 -2.814615 0.303793 -0.904472 -0.164942
-1.559491 0.343691 -3.236857 0.230437 -0.898232 -0.165442
-1.684781 0.188602 -3.037414 0.243695 -0.927084 -0.171008
-1.661190 0.040109 -3.035390 0.252777 -0.902908 -0.163082
-1.545841 0.661422 -3.478053 0.175773 -0.913666 -0.168781
-1.788355 0.103077 -3.020103 0.256001 -0.943261 -0.170936
-1.571257 0.174846 -3.143487 0.251372 -0.889263 -0.158701
-1.619018 0.620620 -3.281833 0.208465 -0.929856 -0.169640
-1.801305 -0.072813 -2.846932 0.311127 -0.953555 -0.171098
-1.664632 0.198110 -3.212827 0.278490 -0.915100 -0.162434
-1.611980 0.460220 -3.117519 0.249675 -0.943370 -0.172634
-1.766178 -0.045980 -2.991178 0.301698 -0.958823 -0.172378
-1.617866 0.422524 -3.466482 0.225186 -0.936651 -0.166890
-1.699938 0.328926 -3.189187 0.248977 -0.982586 -0.179712
-1.743384 -0.028930 -3.088800 0.288422 -0.959098 -0.170626
-1.656410 0.539278 -3.467864 0.216909 -0.968576 -0.174069
-1.800997 0.199781 -3.068697 0.276999 -1.002109 -0.181870
-1.689143 0.130685 -3.038761 0.287506 -0.952076 -0.171155
-1.583023 0.622526 -3.340909 0.221841 -0.973561 -0.182305
-1.777280 0.133569 -2.987015 0.284438 -0.996509 -0.187076
-1.687726 0.148120 -3.001547 0.266375 -0.965856 -0.181903
-1.686092 0.537357 -3.189465 0.213853 -1.000530 -0.193758
-1.921379 -0.006404 -3.013889 0.269947 -1.025524 -0.194973
-1.799231 0.249868 -3.115033 0.228824 -0.996029 -0.189029
-1.760297 0.578037 -3.064845 0.193804 -1.014574 -0.199202
-1.842060 -0.093465 -2.705890 0.290690 -1.003173 -0.199415
-1.690071 0.293059 -2.939639 0.250228 -0.968740 -0.197451
-1.722105 0.611104 -3.188996 0.220505 -0.986975 -0.205196
-1.846643 0.014246 -2.745362 0.301358 -0.981629 -0.203490
-1.676961 0.341800 -2.986753 0.248126 -0.950478 -0.196685
-1.774281 0.637783 -3.164973 0.205592 -0.971345 -0.197399
-1.841747 0.048446 -2.643963 0.277764 -0.974534 -0.193556
-1.634483 0.121978 -2.815549 0.262476 -0.929789 -0.184800
-1.593388 0.669994 -3.496986 0.183301 -0.925880 -0.185909
-1.858958 0.508371 -3.134529 0.213898 -0.976328 -0.196773
-1.836056 -0.359113 -2.226672 0.346918 -0.942934 -0.192725
-1.475664 -0.111073 -2.576010 0.321667 -0.875822 -0.184183
-1.858186 0.728862 -3.358378 0.210687 -0.943919 -0.190751
-1.861526 0.590979 -3.350344 0.230445 -0.933407 -0.183246
-1.636978 0.014159 -2.729610 0.311826 -0.889333 -0.175786
-1.593983 0.009648 -2.305441 0.307850 -0.881686 -0.175960
-1.790680 0.622639 -3.049024 0.207329 -0.917191 -0.181566
-1.757258 0.827877 -3.064063 0.141173 -0.899946 -0.178132
-1.614275 0.422332 -2.540820 0.167183 -0.881578 -0.179315
-1.617847 0.101585 -2.148915 0.189641 -0.873855 -0.176276
-1.666956 0.415314 -2.440517 0.119437 -0.882060 -0.172398
-1.685090 0.589204 -2.383542 0.073153 -0.889435 -0.171482
-1.668729 0.238541 -2.102051 0.093067 -0.876546 -0.169120
-1.528573 0.080408 -1.882639 0.080528 -0.845165 -0.168928
-1.556164 0.525799 -1.812299 0.003128 -0.843716 -0.176060
-1.609362 0.669766 -1.739916 -0.040646 -0.830088 -0.179083
-1.509999 0.518555 -1.547473 -0.055379 -0.798023 -0.180069
-1.620787 0.139294 -0.911713 -0.031822 -0.804318 -0.184467
-1.454602 0.100225 -0.384874 -0.064337 -0.762161 -0.176361
-1.426058 0.309026 -1.390724 -0.141723 -0.736204 -0.164970
-1.412553 0.541784 -0.821223 -0.195265 -0.722118 -0.165717
-1.368257 -0.693855 -0.336418 -0.061431 -0.678422 -0.156622
-1.211964 0.062251 -0.438845 -0.171272 -0.580390 -0.135009
-1.199105 0.072036 -0.497134 -0.178986 -0.577580 -0.140568
-1.690718 0.139932 -1.224701 -0.190916 -0.579894 -0.133598
-0.859456 -0.039722 -0.177916 -0.150647 -0.416548 -0.120704
-1.480211 -0.461470 0.661300 -0.094046 -0.463676 -0.126844
-1.288140 0.052987 -0.495945 -0.205726 -0.384255 -0.107574
-1.352254 0.549654 -0.294126 -0.276894 -0.368502 -0.098570
-0.769929 0.239739 -1.046370 -0.272660 -0.238802 -0.065282
-1.224604 0.052131 -0.335487 -0.243460 -0.269210 -0.055892
-0.368365 0.710716 -0.628710 -0.339118 -0.095656 -0.021321
-0.779316 0.591306 -0.851958 -0.337815 -0.129443 -0.023238
-0.709681 0.007020 -0.255829 -0.230578 -0.119251 -0.024827
-0.819666 -0.502130 0.004952 -0.181583 -0.109463 -0.014046
-1.020101 -0.489663 0.430215 -0.164430 -0.155592 -0.018627
-0.746429 -0.423093 0.649355 -0.172422 -0.104706 0.005444
-0.912187 -0.184210 2.776522 -0.265941 -0.138925 0.024199
-0.062105 0.318661 5.155843 -0.341880 -0.013472 0.057477
-1.284450 0.941847 9.567023 -0.465448 -0.166009 0.038621
-1.339743 0.006485 16.283107 -0.451307 -0.082205 0.041162
-1.668011 -0.957069 21.386809 -0.462814 0.027373 0.062314
-1.457197 -2.058893 26.004393 -0.487728 0.112292 0.060951
-1.758648 -2.061224 29.945819 -0.567312 0.089720 0.049576
-1.151324 -2.699069 29.341944 -0.579070 0.210633 0.062488
-1.612366 -3.656245 30.856334 -0.445908 0.111665 0.030159
-1.019202 -4.467857 28.596985 -0.347489 0.130498 0.004847
-1.211928 -4.069332 24.574632 -0.410734 0.024612 -0.017486
-0.677588 -3.697335 20.436718 -0.438795 -0.080280 -0.042327
-0.736710 -4.505888 16.388118 -0.269557 -0.222354 -0.042383
-0.538169 -4.750534 14.079202 -0.185078 -0.272229 -0.044127
-1.003452 -4.186714 11.092991 -0.168684 -0.370861 -0.043169
-0.985243 -4.259379 8.000071 -0.043608 -0.435386 -0.046699
-0.935128 -3.830569 6.504478 0.064181 -0.438219 -0.039265
-0.331656 -3.669263 4.685553 0.206298 -0.367973 -0.027872
-0.659336 -3.295450 3.873980 0.284401 -0.435099 -0.037974
-0.646613 -2.523481 2.331245 0.266611 -0.420009 -0.033076
-0.166756 -2.074882 2.223004 0.284315 -0.361039 -0.032454
-0.018218 -1.812189 2.540872 0.284783 -0.354200 -0.025195
-0.097305 -1.764530 3.596843 0.304966 -0.403471 -0.029359
0.161161 -0.754995 3.304719 0.154948 -0.341249 -0.017153
0.083960 -0.667935 4.788040 0.104142 -0.366158 -0.037876
-0.546533 -1.718570 7.268184 0.172619 -0.395562 -0.053856
-0.627884 -1.898771 8.589809 0.077554 -0.278894 -0.048157
-1.471307 -1.642395 9.912031 -0.072075 -0.342359 -0.072945
-1.973999 -1.881911 11.789533 -0.118837 -0.306266 -0.067954
-1.788486 -2.226852 13.590987 -0.082872 -0.224694 -0.057910
-1.862487 -1.784510 14.014997 -0.133245 -0.212128 -0.054527
-2.007599 -0.817701 13.999071 -0.258054 -0.204479 -0.052819
-1.892407 -0.909461 14.097320 -0.261706 -0.166645 -0.053577
-1.669264 -1.038252 14.425144 -0.274300 -0.110462 -0.050703
-1.891167 -1.379504 13.907665 -0.267214 -0.146068 -0.052904
-1.826404 -0.994290 12.521868 -0.321881 -0.163808 -0.053420
-1.648624 -1.181362 11.624115 -0.245020 -0.193220 -0.054829
-1.430132 -1.307958 10.864581 -0.130419 -0.228996 -0.056550
-1.469134 -1.252435 9.687614 -0.063166 -0.300606 -0.062971
-1.568146 -1.244659 8.585434 -0.030842 -0.342536 -0.065352
-1.667208 -1.309038 7.739848 -0.016843 -0.359938 -0.064855
-1.675473 -1.431471 7.151340 -0.000418 -0.370217 -0.065734
-1.468896 -1.269535 6.402254 -0.014695 -0.342865 -0.059303
-1.352294 -0.825973 5.739268 -0.054560 -0.331577 -0.052623
-1.192413 -0.341079 5.207110 -0.093143 -0.302852 -0.042408
-0.965701 -0.217542 5.022334 -0.081219 -0.259100 -0.030459
-0.843463 0.000339 5.043170 -0.086257 -0.236751 -0.023417
-0.683449 0.179536 4.995434 -0.086902 -0.215377 -0.020214
-0.657109 0.280926 5.201549 -0.073855 -0.205674 -0.020279
-0.798863 0.216949 5.561354 -0.047697 -0.249561 -0.030909
-0.842876 0.217060 6.057984 -0.046353 -0.256822 -0.033723
-0.983404 0.097484 6.495854 -0.062703 -0.283289 -0.041474
-1.103860 -0.094505 7.356387 -0.085717 -0.303504 -0.049888
-1.175704 -0.266815 8.071364 -0.111355 -0.292875 -0.046283
-1.104956 -0.027672 8.795237 -0.153438 -0.292835 -0.045136
-1.085500 0.282735 9.390120 -0.181807 -0.294276 -0.040753
-0.985542 0.564724 10.602415 -0.205991 -0.246616 -0.031952
-1.015366 0.610858 11.202573 -0.226391 -0.205201 -0.026979
-1.132976 0.300339 12.624913 -0.232997 -0.136227 -0.025462
-1.349328 0.270129 14.034350 -0.300167 -0.042766 -0.018417
-1.388613 0.066057 15.212796 -0.287108 -0.025653 -0.019484
-1.518128 -0.492527 17.534799 -0.203193 -0.035893 -0.019424
-1.362756 -0.683804 19.738662 -0.161949 -0.006207 -0.010968
-1.396145 0.031839 20.748619 -0.274530 -0.011983 -0.007648
-1.544944 0.063484 23.150137 -0.291383 -0.053138 -0.020300
-1.643546 -1.081315 26.558659 -0.164226 -0.057411 -0.028370
-1.521983 -0.827666 28.765441 -0.241978 -0.013636 -0.030040
-2.080003 -0.805176 31.285657 -0.267329 -0.105561 -0.049429
-2.298922 -0.501243 32.457237 -0.349302 -0.077388 -0.036847
-1.719302 -1.010016 35.225420 -0.300414 -0.039858 -0.045383
-1.768109 -1.721274 37.689130 -0.265100 -0.068825 -0.050360
-1.300570 -1.497297 37.718123 -0.369006 -0.035741 -0.050326
-1.439480 -1.783074 37.988669 -0.418809 -0.146592 -0.074751
-1.007690 -3.014480 39.226788 -0.318644 -0.175839 -0.081301
-0.486052 -3.601034 40.015531 -0.237402 -0.230609 -0.086384
-0.567242 -2.865680 38.846482 -0.298084 -0.343183 -0.090055
-0.678980 -2.741210 38.273290 -0.279276 -0.493529 -0.116568
-0.585925 -3.589659 38.964872 -0.184900 -0.508284 -0.114762
-0.308952 -4.474492 39.385742 -0.123943 -0.574835 -0.128179
-0.623695 -4.321846 39.318194 -0.181182 -0.750089 -0.146858
-0.113463 -4.086659 39.064464 -0.211687 -0.769405 -0.142182
0.070251 -4.105480 39.388170 -0.182970 -0.807618 -0.148384
-0.159501 -4.025978 39.724919 -0.177766 -0.895906 -0.167483
-0.441012 -3.387271 39.136168 -0.266716 -0.913488 -0.165321
0.218894 -3.111512 38.410229 -0.306129 -0.813949 -0.154015
-0.200224 -3.005660 37.789217 -0.316293 -0.906879 -0.167273
-0.196612 -2.817369 36.736845 -0.328454 -0.951501 -0.176588
0.138144 -2.557885 35.280911 -0.322268 -0.908655 -0.175577
-0.385356 -2.140801 33.462080 -0.297028 -1.074500 -0.212997
-0.824507 -1.674732 31.560454 -0.282847 -1.100405 -0.214777
-0.795182 -1.196337 29.311048 -0.286100 -1.062037 -0.218652
-1.007294 -1.133169 27.490028 -0.236504 -1.080645 -0.234742
-1.277014 -1.184950 26.241473 -0.155897 -1.122233 -0.254958
-1.422196 -0.717357 24.026387 -0.146226 -1.138106 -0.266249
-1.408121 0.262701 21.987808 -0.211706 -1.124906 -0.264263
-1.567363 0.795215 20.512481 -0.190327 -1.173044 -0.265669
-1.293894 0.819077 20.307506 -0.078497 -1.140372 -0.256414
-1.926291 1.004860 19.949458 0.003924 -1.225851 -0.261295
-1.378009 2.022090 18.196158 -0.096451 -1.076285 -0.237035
-2.094736 2.570412 17.383945 -0.150585 -1.140230 -0.251515
-2.317305 1.948135 17.828176 -0.065352 -1.138283 -0.259081
-2.414798 1.914858 17.672542 -0.052959 -1.100610 -0.254729
-2.123169 2.387982 16.726255 -0.083446 -1.087462 -0.260521
-2.643586 2.629209 15.947862 -0.080362 -1.198529 -0.277254
-2.435744 2.500137 14.931422 -0.051769 -1.160853 -0.271824
-2.704162 2.551308 12.723251 -0.020466 -1.183460 -0.265859
-2.687876 2.698491 12.178660 -0.015465 -1.186131 -0.265581
-2.601851 2.533962 11.065782 0.086862 -1.185850 -0.266027
-2.352292 2.397880 9.293959 0.140349 -1.150846 -0.260948
-2.310751 2.787092 7.112465 0.104517 -1.127222 -0.262339
-2.719116 2.410856 5.632449 0.162872 -1.183438 -0.275753
-2.817456 1.196640 5.524118 0.330550 -1.173441 -0.275075
-2.396593 1.202818 4.190010 0.327965 -1.085415 -0.256103
-2.371267 1.651172 2.436411 0.266893 -1.109106 -0.250154
-2.441178 1.675603 1.883663 0.283453 -1.153217 -0.247136
-2.037651 0.948086 2.103897 0.395837 -1.090876 -0.227508
-2.037724 0.962716 1.322308 0.390172 -1.095661 -0.221691
-2.276679 1.717356 -0.130815 0.271273 -1.114534 -0.215601
-2.288793 1.884934 -1.230394 0.223405 -1.098485 -0.207831
-1.678125 1.405342 -1.173620 0.270550 -0.954598 -0.182427
-1.714928 0.704445 -0.855932 0.347057 -0.956123 -0.180699
-1.602526 1.101772 -2.157982 0.243894 -0.899171 -0.163068
-1.508501 1.667057 -3.571937 0.120630 -0.852069 -0.150375
-1.488593 0.958008 -3.224189 0.194120 -0.852650 -0.154690
-1.472389 -0.254703 -1.958740 0.349910 -0.824155 -0.151429
-1.204295 0.152921 -2.774123 0.281252 -0.759659 -0.140743
-1.449534 1.006312 -4.002693 0.158965 -0.821867 -0.153213
-1.805488 -0.099276 -2.632412 0.322906 -0.873681 -0.164208
-1.505479 -0.706102 -2.192241 0.416468 -0.791651 -0.148055
-1.715272 0.276211 -3.043429 0.286777 -0.831719 -0.151569
-1.909853 0.830657 -3.546823 0.206789 -0.864233 -0.153250
-1.496931 -0.164755 -2.951633 0.320394 -0.768724 -0.134941
-1.257538 -0.193815 -2.593557 0.311626 -0.733770 -0.130125
-1.534060 0.831022 -3.732245 0.158768 -0.766553 -0.126805
-1.455621 0.598865 -3.272229 0.189045 -0.740608 -0.121072
-1.174307 -0.322731 -2.733577 0.308845 -0.666722 -0.104065
-1.072798 -0.032952 -2.931196 0.280335 -0.650177 -0.099506
-1.131476 0.842544 -3.905111 0.161865 -0.651079 -0.096584
-1.208745 -0.016124 -2.658898 0.302798 -0.688230 -0.111091
-1.225309 -0.782422 -2.076621 0.404524 -0.665234 -0.104997
-1.354818 0.273232 -3.421795 0.250247 -0.695105 -0.109837
-1.681597 0.896732 -3.835883 0.166944 -0.766423 -0.122011
-1.658043 -0.343446 -2.677150 0.321397 -0.750956 -0.120607
-1.190305 -0.572691 -2.399000 0.346052 -0.664378 -0.105588
-1.286591 0.607921 -3.934872 0.176789 -0.696322 -0.105730
-1.527367 0.537499 -3.367718 0.203280 -0.749098 -0.116140
-1.064589 -0.577817 -2.439624 0.363171 -0.649630 -0.102826
-0.911381 -0.337821 -2.686531 0.338293 -0.632195 -0.105881
-1.265443 0.620212 -3.498655 0.226598 -0.712050 -0.124990
-1.309041 -0.000638 -2.954353 0.313757 -0.704120 -0.125415
-1.053671 -0.542850 -2.584280 0.386744 -0.658321 -0.118984
-1.357719 0.121776 -3.225912 0.290323 -0.728563 -0.122435
-1.738484 0.545528 -3.429229 0.219219 -0.808159 -0.129782
-1.537066 -0.094717 -2.769534 0.301270 -0.772245 -0.125289
-1.246384 -0.375796 -2.618206 0.331476 -0.724628 -0.120706
-1.441859 0.349779 -3.434493 0.230294 -0.772000 -0.128823
-1.473526 0.791368 -3.950104 0.170200 -0.770247 -0.125668
-1.342866 -0.379110 -2.560193 0.347008 -0.756195 -0.125744
-1.259107 -0.799918 -2.175626 0.408756 -0.726883 -0.112284
-1.172323 0.232595 -3.218941 0.267429 -0.725833 -0.106495
-1.438005 0.618377 -3.858680 0.209001 -0.783790 -0.113521
-1.288880 0.154727 -3.104938 0.272917 -0.764239 -0.115265
-1.292923 -0.404325 -2.199174 0.352719 -0.782365 -0.124179
-1.481609 0.062315 -3.118342 0.265520 -0.808916 -0.124035
-1.687071 0.875762 -3.775349 0.147478 -0.853042 -0.129788
-1.685424 0.564673 -3.788623 0.188468 -0.855726 -0.127452
-1.502552 -0.253039 -2.677862 0.318680 -0.834513 -0.123159
-1.416199 -0.404578 -2.291316 0.354531 -0.818741 -0.120990
-1.393489 0.100186 -3.390105 0.280999 -0.801413 -0.115744
-1.368138 0.345888 -3.433331 0.258029 -0.809736 -0.124319
-1.387360 0.003616 -3.096342 0.300846 -0.806998 -0.128101
-1.356896 -0.596589 -2.294907 0.379269 -0.813589 -0.134608
-1.405141 -0.125451 -2.881672 0.300019 -0.809334 -0.131467
-1.435495 0.682661 -3.852878 0.176758 -0.810390 -0.128299
-1.528057 0.664831 -3.758788 0.182566 -0.833059 -0.128841
-1.523591 -0.119650 -2.705190 0.306062 -0.827817 -0.124607
-1.469981 -0.583820 -2.153816 0.382769 -0.820220 -0.125079
-1.521929 0.229456 -3.120300 0.275189 -0.819381 -0.123807
-1.539054 0.518683 -3.563741 0.244865 -0.824069 -0.128070
-1.315509 0.005663 -3.035517 0.314598 -0.770764 -0.121787
-1.236454 -0.450244 -2.473392 0.378468 -0.765869 -0.124147
-1.401223 0.013641 -2.603525 0.310149 -0.781615 -0.122652
-1.324215 0.540749 -3.304921 0.213591 -0.769949 -0.117136
-1.365379 0.537682 -2.991689 0.180888 -0.773476 -0.115556
-1.325314 0.320503 -2.768850 0.179885 -0.762566 -0.111597
-1.347478 0.479262 -2.484724 0.141001 -0.765399 -0.114360
-1.378754 0.503074 -2.418104 0.117387 -0.762446 -0.115102
-1.345165 0.588171 -2.617479 0.072518 -0.753404 -0.115041
-1.340884 0.367408 -2.408680 0.064968 -0.748900 -0.113127
-1.303176 0.159115 -1.895855 0.064450 -0.734617 -0.111395
-1.117763 0.367188 -1.533161 0.014155 -0.691278 -0.104469
-1.159937 0.240502 -1.545745 -0.005262 -0.686490 -0.102014
-1.076735 0.201138 -1.535453 -0.039717 -0.672167 -0.098748
-1.189567 0.412809 -1.215080 -0.096430 -0.670842 -0.095878
-1.207849 0.515057 -1.308504 -0.154497 -0.668240 -0.091076
-1.198433 0.006635 -0.908215 -0.124140 -0.676509 -0.091373
-0.930935 0.006956 -0.257422 -0.143588 -0.613952 -0.081232
-1.078920 0.107698 -0.815853 -0.171988 -0.616954 -0.081884
-1.090676 0.333861 -1.102295 -0.231967 -0.589505 -0.082296
-1.164238 -0.097790 -0.240531 -0.158998 -0.566114 -0.083829
-0.949592 -0.623245 -0.376571 -0.078760 -0.483613 -0.075697
-1.076790 0.311571 -0.038970 -0.187286 -0.456959 -0.075303
-1.144497 -0.089689 -0.764968 -0.158539 -0.431954 -0.079332
-0.716974 0.207995 -0.590811 -0.211785 -0.285270 -0.057323
-0.984396 -0.149521 0.541763 -0.164379 -0.343118 -0.079728
-1.030361 0.156806 -0.547728 -0.260846 -0.285661 -0.060274
-0.841182 0.148274 -0.283735 -0.266748 -0.232250 -0.046662
-0.977076 0.119558 -0.180353 -0.263949 -0.251829 -0.045028
-0.629168 -0.240958 -0.798390 -0.239811 -0.154882 -0.022603
-0.616228 -0.341916 0.319178 -0.187082 -0.131375 -0.021646
-0.472935 -0.185594 0.745308 -0.190679 -0.102962 -0.020343
-0.824027 -0.412424 0.535687 -0.190278 -0.138769 -0.016650
-0.768513 0.232131 2.633952 -0.256324 -0.120160 -0.007689
-0.836175 0.006557 5.359589 -0.215839 -0.146945 -0.009344
-1.227292 0.546430 7.318787 -0.283837 -0.096940 0.008371
-1.221873 0.270696 10.521579 -0.286851 -0.001361 0.016592
-1.855918 0.130541 13.434213 -0.320822 0.008741 0.012131
-1.589457 -0.707070 15.807054 -0.306570 0.132287 0.027787
-1.480751 -0.963003 18.111076 -0.278369 0.127823 0.023133
-1.377009 -1.490987 18.505285 -0.234355 0.102445 0.026624
-0.763962 -1.614193 18.911699 -0.240039 0.163885 0.035658
-1.058494 -2.045637 18.627623 -0.178825 0.060555 0.016397
-0.755412 -2.914046 19.058798 -0.056283 0.083595 0.012801
-0.908701 -3.043396 17.166807 -0.050657 0.053367 0.005482
-1.030577 -2.617555 15.336027 -0.111100 0.004480 -0.006497
-1.309083 -2.912375 13.917866 -0.091452 -0.086859 -0.018348
-0.951222 -3.884891 13.635504 0.035771 -0.081072 -0.016206
-0.683502 -4.007976 12.850137 0.040524 -0.099050 -0.017655
-0.501585 -3.765239 11.901967 0.003953 -0.134778 -0.017927
-0.209056 -3.919125 11.411963 0.023659 -0.146969 -0.016877
0.086433 -4.399025 11.994631 0.085257 -0.115258 -0.011037
0.097006 -3.751748 12.103392 -0.012578 -0.097159 -0.010059
-0.097618 -3.454066 12.522732 -0.047136 -0.103749 -0.013939
-0.297906 -3.399489 13.678748 -0.040734 -0.094382 -0.016333
-0.318564 -3.336583 14.736173 -0.064400 -0.061883 -0.014971
-0.603960 -3.125336 15.616597 -0.158328 -0.093640 -0.023708
-0.862069 -3.187818 16.335702 -0.247590 -0.118421 -0.026977
-0.870112 -3.373074 17.841816 -0.272353 -0.145805 -0.034948
-0.649095 -3.908132 19.376649 -0.209185 -0.152099 -0.037431
-0.556775 -3.448275 20.042665 -0.246352 -0.175099 -0.039664
-0.506751 -2.770790 20.058337 -0.313215 -0.193855 -0.042627
-0.645047 -2.609152 20.627314 -0.321885 -0.207272 -0.044976
-0.696287 -2.913829 21.402675 -0.293142 -0.187161 -0.044741
-0.896412 -2.897844 21.599239 -0.318901 -0.205743 -0.048928
-0.952051 -2.543899 21.267782 -0.373453 -0.233808 -0.052218
-0.799184 -2.305129 20.948202 -0.380375 -0.261404 -0.054763
-0.683312 -2.319936 21.003169 -0.355909 -0.271948 -0.055735
-0.674419 -2.237064 21.034826 -0.332899 -0.312238 -0.063259
-0.714420 -1.899283 20.720499 -0.349401 -0.338824 -0.064913
-0.678497 -1.721257 20.707572 -0.353175 -0.361778 -0.069060
-0.736916 -1.923486 21.423536 -0.317691 -0.379212 -0.073466
-0.764864 -2.125651 22.358050 -0.302460 -0.381417 -0.076094
-0.811169 -1.901173 23.351563 -0.343232 -0.374958 -0.076047
-0.896657 -1.640837 24.466049 -0.373212 -0.378354 -0.074643
-1.003509 -1.623819 26.353471 -0.358294 -0.404684 -0.080517
-1.050481 -1.585298 28.639459 -0.349019 -0.414308 -0.088984
-1.192535 -1.408698 31.076608 -0.371135 -0.412671 -0.095641
-1.442682 -0.844984 32.582450 -0.481124 -0.425792 -0.107490
-1.777306 -1.079517 35.670590 -0.445882 -0.463174 -0.124811
-1.635285 -1.423297 38.383274 -0.408918 -0.400109 -0.115203
-1.557734 -0.712285 40.377617 -0.508057 -0.428922 -0.124681
-1.791288 -0.953294 42.490451 -0.485591 -0.525847 -0.136238
-1.232519 -1.525028 44.197073 -0.453550 -0.458119 -0.115695
-0.807887 -1.284275 45.554828 -0.497611 -0.509686 -0.126756
-1.287734 -1.761675 46.116416 -0.481040 -0.671119 -0.140678
-0.907406 -2.696091 47.331575 -0.443288 -0.678656 -0.142551
-0.624707 -2.881697 47.345925 -0.503014 -0.693719 -0.147485
-0.668320 -3.007774 47.692646 -0.468021 -0.819927 -0.168994
-0.636655 -3.147936 48.256243 -0.376148 -0.869469 -0.170434
-0.396591 -3.429834 48.671385 -0.333221 -0.888783 -0.180428
-0.267558 -3.365317 48.379738 -0.424068 -0.898090 -0.180699
-0.341449 -3.860156 48.979397 -0.419335 -1.015969 -0.199716
0.094087 -4.621278 49.989449 -0.340468 -1.018089 -0.191891
0.825905 -4.857079 50.469166 -0.316100 -0.954285 -0.181681
-0.010933 -4.347971 50.032434 -0.403491 -1.142272 -0.207143
0.029284 -3.977327 49.528535 -0.476381 -1.106202 -0.199139
0.238434 -4.459827 49.996586 -0.407345 -1.067587 -0.201559
0.553091 -4.410166 49.650759 -0.399432 -1.047525 -0.211373
-0.125653 -3.775374 48.667387 -0.456665 -1.228314 -0.249442
0.147401 -3.430767 47.321781 -0.476766 -1.183014 -0.246888
-0.033271 -3.413705 46.587265 -0.429014 -1.202541 -0.259550
0.717460 -3.540123 45.307926 -0.374538 -1.088988 -0.255157
-0.790247 -3.070947 43.644682 -0.390973 -1.291390 -0.280927
0.174256 -2.730357 41.780657 -0.393594 -1.087198 -0.263706
0.271798 -2.616785 40.294319 -0.344682 -1.043584 -0.268061
-0.870621 -2.015537 39.021748 -0.337617 -1.216143 -0.303922
-0.826457 -0.973886 37.114656 -0.388083 -1.120909 -0.296853
-0.243998 -0.259419 35.463320 -0.371736 -1.010461 -0.296012
-1.463701 0.228522 34.727119 -0.325350 -1.213721 -0.330851
-1.091940 0.449901 33.681348 -0.322124 -1.057350 -0.305389
-1.115993 0.766652 32.420048 -0.384750 -0.988597 -0.294924
-2.219619 0.874745 31.685192 -0.360514 -1.120393 -0.313565
-1.728589 1.025877 31.038275 -0.302228 -0.988618 -0.299261
-1.981552 1.610448 29.880968 -0.280025 -1.002313 -0.311114
-2.120572 2.046269 28.521047 -0.278023 -1.017067 -0.320908
-2.110928 1.741405 27.507762 -0.214113 -1.044795 -0.336610
-2.235765 1.897963 25.192595 -0.264633 -1.043695 -0.337856
-2.831748 2.205237 22.876822 -0.264479 -1.107619 -0.344577
-2.508225 2.146838 21.200564 -0.119243 -1.053547 -0.337985
-2.528761 1.973729 19.533909 0.020040 -1.050991 -0.329709
-2.439274 2.617195 16.771908 -0.030985 -1.031817 -0.324232
-2.520528 2.352972 14.614475 0.015209 -1.055939 -0.319087
-2.404731 0.942356 14.401986 0.252834 -1.070875 -0.311491
-2.219427 1.645123 11.661684 0.182375 -1.037314 -0.287024
-2.479468 2.344672 9.081266 0.128307 -1.099959 -0.280377
-2.007870 1.091790 9.451017 0.338473 -1.028966 -0.263325
-2.039832 1.375678 7.743941 0.290538 -0.998548 -0.236897
-2.079789 2.352666 5.314556 0.144035 -0.987881 -0.217045
-1.510404 1.038897 5.735230 0.335507 -0.862280 -0.185280
-1.418209 0.665329 5.498404 0.392163 -0.806183 -0.167397
-1.360628 1.767643 3.102839 0.218420 -0.744640 -0.150035
-1.342135 0.952859 3.129293 0.319916 -0.697591 -0.139916
-1.342259 0.538388 3.276167 0.371934 -0.662783 -0.132997
-1.621570 0.981669 2.131335 0.298621 -0.702818 -0.130034
-1.556460 0.899158 1.530393 0.307616 -0.690313 -0.116439
-1.075338 0.690855 1.127071 0.329306 -0.630727 -0.101711
-1.565978 0.685072 0.666028 0.319188 -0.721937 -0.109117
-1.097204 0.684966 -0.123459 0.297731 -0.616422 -0.089481
-1.272955 0.580202 -0.397009 0.304280 -0.630262 -0.092651
-1.032205 0.178059 -0.484946 0.342235 -0.600826 -0.089454
-1.233205 0.148964 -0.846633 0.336592 -0.610238 -0.085489
-1.090261 0.337795 -1.867488 0.294110 -0.580273 -0.073405
-1.313398 0.543104 -2.315140 0.248533 -0.626932 -0.080020
-1.382466 0.135230 -2.274241 0.288109 -0.628348 -0.080126
-1.152496 0.005150 -2.594680 0.297887 -0.618679 -0.083706
-1.323811 0.256221 -3.110018 0.259376 -0.638183 -0.087130
-1.328207 -0.213129 -2.619590 0.331814 -0.669284 -0.100244
-1.217951 0.091767 -2.981842 0.287271 -0.623587 -0.089211
-1.458561 0.214240 -3.673131 0.264614 -0.685785 -0.093964
-1.049424 -0.047396 -2.938152 0.302586 -0.607085 -0.080246
-1.313466 -0.476260 -2.383587 0.370524 -0.672915 -0.092765
-0.975713 0.510843 -3.550278 0.222028 -0.607606 -0.083809
-1.167938 0.521708 -3.518768 0.218861 -0.660856 -0.097122
-1.495728 -0.595438 -2.320418 0.367581 -0.708828 -0.104154
-1.091856 0.230515 -3.172668 0.253370 -0.624830 -0.084871
-1.254282 0.657294 -3.857132 0.201384 -0.679929 -0.095140
-1.151740 -0.788044 -1.918032 0.414066 -0.651789 -0.092286
-1.039071 -0.090480 -2.925701 0.300639 -0.621262 -0.085338
-1.458707 0.673492 -3.845951 0.186096 -0.704110 -0.094783
-1.087674 -0.583270 -2.200521 0.366271 -0.619690 -0.083462
-0.951903 -0.757920 -1.807783 0.391203 -0.590182 -0.077806
-1.261373 0.623301 -3.997029 0.178632 -0.648387 -0.079764
-1.459523 0.349474 -3.227382 0.240871 -0.689887 -0.092177
-0.978031 -0.837130 -2.440588 0.400847 -0.572604 -0.075630
-0.929600 -0.222203 -3.075228 0.322644 -0.576764 -0.083711
-1.337089 0.286335 -2.961386 0.260679 -0.656468 -0.100667
-1.152508 -0.261687 -3.221755 0.319817 -0.593182 -0.086249
-0.958439 -0.318564 -2.890754 0.321046 -0.585138 -0.090577
-1.324030 -0.326204 -2.470542 0.324458 -0.662893 -0.102966
-1.222411 -0.046550 -3.340324 0.276956 -0.616046 -0.088445
-0.939387 0.389917 -3.287341 0.217552 -0.606972 -0.097348
-1.369437 -0.222783 -2.573921 0.309142 -0.681616 -0.112555
-1.134079 -0.003154 -3.200096 0.265634 -0.614155 -0.098434
-1.351451 0.310611 -2.994552 0.243127 -0.702072 -0.121083
-1.527682 -0.085541 -2.935381 0.284541 -0.705643 -0.113468
-1.109358 0.030173 -2.740075 0.280496 -0.658072 -0.108894
-1.339607 -0.413860 -2.723734 0.342337 -0.726107 -0.117869
-1.244072 0.145708 -3.200357 0.258948 -0.713448 -0.113392
-1.256382 0.201676 -2.995010 0.264025 -0.740717 -0.118020
-1.341050 -0.101315 -3.119879 0.301519 -0.764226 -0.122331
-1.334783 0.380948 -2.907236 0.221145 -0.776103 -0.126526
-1.477894 0.146940 -3.333967 0.238973 -0.774486 -0.119299
-1.366601 0.225806 -2.398165 0.257845 -0.804158 -0.137487
-1.428185 0.016466 -2.833991 0.274860 -0.803163 -0.133456
-1.416168 0.213444 -3.146438 0.247358 -0.842482 -0.145658
-1.567636 0.160168 -3.594243 0.225646 -0.855749 -0.143945
-1.512797 -0.004609 -3.569442 0.260107 -0.881078 -0.153123
-1.517292 -0.086391 -3.026368 0.267431 -0.893125 -0.159389
-1.630746 -0.119941 -2.621712 0.256480 -0.920872 -0.167759
-1.570158 0.263317 -3.105331 0.216925 -0.894480 -0.161999
-1.510319 0.105983 -2.717912 0.238060 -0.910279 -0.174122
-1.511092 -0.272245 -2.224104 0.282635 -0.918135 -0.182437
-1.670232 -0.096958 -2.911063 0.258325 -0.916291 -0.185919
-1.396382 0.377663 -3.598219 0.181422 -0.864524 -0.181587
-1.343300 0.905723 -4.138620 0.098568 -0.871252 -0.190505
-1.659292 0.355219 -2.525282 0.182504 -0.926914 -0.203460
-1.658157 -0.113034 -2.192297 0.222624 -0.928007 -0.198601
-1.509600 -0.310912 -1.747094 0.266688 -0.919769 -0.195087
-1.822522 0.355033 -3.276903 0.150643 -0.995396 -0.196063
-1.414505 1.114194 -4.361511 0.063728 -0.931581 -0.186796
-1.511850 0.876278 -2.944229 0.110221 -0.977099 -0.204881
-1.778626 0.227468 -1.901556 0.191067 -1.010556 -0.221224
-1.580536 -0.886797 -1.688530 0.331678 -0.981605 -0.226394
-1.646652 0.371599 -3.699133 0.144325 -0.995320 -0.225798
-1.760459 1.857652 -3.628747 -0.039368 -1.006067 -0.232315
-1.848560 1.142351 -2.610157 0.060276 -1.039613 -0.244797
-1.726980 -0.976618 -1.692898 0.349531 -1.042804 -0.250355
-1.411625 1.500899 -3.130380 -0.013720 -0.971918 -0.236819
-1.691843 1.933938 -2.875077 -0.068087 -1.032045 -0.259825
-2.051053 -0.965700 -2.217030 0.319611 -1.085454 -0.278415
-1.557087 -0.266819 -1.436744 0.263894 -0.966828 -0.264512
-1.780050 2.622762 -4.084458 -0.134597 -1.011791 -0.265315
-2.250020 0.802407 -3.122648 0.087127 -1.113995 -0.280711
-1.787293 -0.935838 -0.089914 0.338195 -0.991085 -0.258494
-1.292882 1.872720 -3.294822 -0.058218 -0.938392 -0.251327
-1.914456 2.260784 -2.981433 -0.113612 -1.026176 -0.263154
-2.050940 -1.083530 -1.396452 0.379716 -1.019856 -0.261094
-1.096425 -0.742498 -0.724256 0.346784 -0.868440 -0.246406
-2.109200 1.714267 -3.274124 -0.011411 -0.977520 -0.246014
-1.574985 0.478318 -2.329923 0.169703 -0.925434 -0.253590
-1.412728 -0.856979 -0.345895 0.358450 -0.860381 -0.242369
-1.844644 0.506778 -2.162421 0.154065 -0.944357 -0.248833
-1.878569 1.713626 -2.825868 -0.032604 -0.939626 -0.234257
-1.946571 0.638707 -1.324235 0.086304 -0.933463 -0.227951
-1.388267 1.365457 -1.714381 -0.080473 -0.894552 -0.216266
-1.455840 2.008229 -2.143805 -0.259558 -0.906100 -0.207908
-1.618567 1.813575 -1.488200 -0.265013 -0.918232 -0.204411
-1.700803 0.922796 -0.570910 -0.192899 -0.894993 -0.201876
-1.411738 1.071166 -1.242441 -0.230049 -0.832330 -0.181258
-1.500830 0.990078 -0.902564 -0.218164 -0.797703 -0.157971
-1.206148 0.571903 0.007626 -0.118498 -0.688510 -0.134170
-1.475086 -0.218859 -0.713277 -0.088187 -0.694448 -0.121025
-1.106633 0.461837 -0.730337 -0.165821 -0.573973 -0.083431
-0.896648 -0.092475 -0.460037 -0.126879 -0.518260 -0.066757
-0.981453 -1.143331 -0.382800 0.022905 -0.381860 -0.029512
-0.656119 -0.444519 1.584819 -0.107017 -0.274775 -0.041087
-0.983544 -2.098995 -0.476949 0.129860 -0.210340 -0.017818
-0.051309 -0.443279 -0.009242 -0.038600 0.057193 0.023416
-0.871035 -0.226974 1.442669 -0.102618 -0.049315 0.010312
-0.284493 -2.710957 0.900414 0.164874 0.096165 0.058157
-0.683580 -0.718096 -1.186262 -0.174795 0.100571 0.077989
-0.858241 0.924256 0.897871 -0.349025 -0.027030 0.043593
-0.267026 -1.662945 1.193891 0.023768 0.179201 0.097178
0.281169 -1.074697 -1.015513 -0.105217 0.205423 0.080533
-0.954892 -0.049836 0.298668 -0.182367 0.066286 0.070889
1.108053 -0.473656 1.524323 -0.148024 0.424132 0.127404
-1.058700 -1.284194 -0.174348 -0.074743 -0.008801 0.067310
0.281078 0.591431 0.283296 -0.368216 0.325193 0.124000
-0.906088 -0.090596 -0.515318 -0.449540 0.022599 0.085343
0.511715 -3.324358 13.031005 -0.535642 0.006371 0.108645
0.120087 -4.838191 26.286982 -1.030690 -0.285773 0.091550
-0.290506 -7.539480 48.733777 -1.485188 -0.317279 0.067256
-1.002823 -8.521643 59.835708 -1.807864 0.084308 0.151049
-3.302412 -9.767672 78.852876 -2.504348 0.028880 0.056096
-3.886914 -18.407627 92.855351 -2.795109 0.494943 0.099266
-2.866701 -25.116113 98.221394 -2.874410 0.348858 0.029132
0.395483 -23.676971 82.062755 -3.390094 0.252744 0.060031
2.274831 -22.035046 65.287904 -3.831103 -0.397437 -0.006117
4.505273 -24.658955 51.070237 -3.438144 -0.787676 -0.063760
2.273400 -18.845112 37.016077 -3.121758 -1.230759 -0.112546
0.275601 -12.040794 18.652907 -2.442917 -1.511631 -0.174802
-1.645188 -9.300140 15.377026 -1.168298 -1.573590 -0.241038
-2.621447 -8.199872 9.212275 -0.094347 -1.575511 -0.297189
-3.125052 -3.420825 6.322266 0.203038 -1.477553 -0.326931
-2.459035 -2.351610 2.557120 0.372511 -1.312642 -0.304252
-1.537866 -1.273273 -0.245548 0.129385 -1.084102 -0.217552
-1.447353 1.605086 -4.428132 -0.472445 -1.035879 -0.140678
-0.998368 1.658586 -5.707994 -0.504592 -1.002137 -0.139116
-1.107603 0.791244 -3.579378 -0.267706 -1.000383 -0.196346
-2.209499 0.647530 -1.511818 0.023412 -1.108345 -0.284937
-2.543631 -1.259876 -0.684077 0.539623 -1.172474 -0.367950
-3.375875 -1.744316 0.645810 0.760240 -1.221770 -0.394301
-3.775894 -0.646558 -1.062195 0.428246 -1.259405 -0.364233
-3.449682 0.937671 -3.895494 -0.073959 -1.195989 -0.289337
-2.187616 0.787528 -5.169092 -0.261491 -1.026188 -0.219719
-1.192172 1.718979 -4.692765 -0.400348 -0.839909 -0.180700
-0.381370 1.003350 -2.752078 -0.152863 -0.695812 -0.172448
-0.091372 -0.164817 -0.843318 0.213489 -0.601352 -0.179904
-0.550616 -0.682164 -1.295485 0.482122 -0.700228 -0.214071
-1.661024 -0.993100 -0.028837 0.573139 -0.895982 -0.236484
-2.537681 0.394247 -2.391346 0.176465 -1.108313 -0.228258
-3.412640 1.758269 -4.518486 -0.237432 -1.282086 -0.210753
-3.253408 0.818059 -3.989008 -0.199928 -1.241821 -0.197062
-2.570044 0.699113 -3.902188 -0.202062 -1.066432 -0.174041
-1.969622 0.435272 -2.803082 -0.083825 -0.962101 -0.182376
-1.427105 -0.228381 -2.304072 0.116806 -0.774513 -0.163179
-0.429648 -1.436042 -0.394676 0.407674 -0.595706 -0.156918
-0.406904 -0.987569 -0.306866 0.489084 -0.542609 -0.153873
-0.555722 0.389121 -2.429510 0.225597 -0.618190 -0.156002
-1.260650 0.822518 -2.862397 0.020490 -0.741571 -0.145350
-2.053830 1.426076 -3.627694 -0.202750 -0.957593 -0.162799
-2.529638 1.967625 -4.381976 -0.335684 -1.013393 -0.157755
-2.424158 0.539554 -2.890325 -0.095169 -0.989388 -0.168769
-1.764738 -0.850247 -1.080074 0.200462 -0.861824 -0.173968
-1.203135 -1.796668 -0.295834 0.412337 -0.733477 -0.163797
-0.944880 -1.242280 -0.293766 0.391134 -0.668189 -0.152312
-0.832193 0.187192 -1.580245 0.151787 -0.665492 -0.135730
-1.238351 1.729066 -2.930570 -0.169426 -0.737854 -0.121818
-1.494176 3.158045 -3.533175 -0.438902 -0.804837 -0.111712
-1.753042 2.911926 -3.359628 -0.457867 -0.868418 -0.113461
-1.660556 2.160827 -2.576597 -0.315632 -0.834060 -0.107926
-1.627634 0.746180 -1.245642 -0.058046 -0.829588 -0.115257
-1.123292 -0.413772 -1.249896 0.148253 -0.729944 -0.086625
-0.898885 -0.378901 -0.117173 0.180246 -0.699644 -0.076717
-1.003651 0.060782 -1.783220 0.065628 -0.725856 -0.051605
-1.090661 1.409882 -2.794816 -0.168348 -0.730611 -0.024561
-1.374367 1.858050 -1.959336 -0.273607 -0.800943 -0.026878
-1.296816 2.637961 -2.285190 -0.433018 -0.807790 -0.023455
-1.356511 2.341919 -2.263418 -0.374633 -0.789927 -0.018150
-0.931796 2.118170 -1.293741 -0.298318 -0.737490 -0.024448
-1.270562 0.443649 -0.809266 -0.070291 -0.775868 -0.026397
-0.794211 0.380364 -0.798417 -0.094216 -0.700477 -0.010247
-1.098823 0.761061 -1.217933 -0.237862 -0.727689 -0.002911
-1.301029 0.450838 -1.015678 -0.291924 -0.740997 0.002287
-1.101346 1.103606 -1.480652 -0.407970 -0.672342 0.021295
-1.640553 1.535117 -1.711714 -0.414520 -0.743888 0.008831
-1.108168 1.258332 -1.417167 -0.308890 -0.612355 0.015833
-0.745673 0.243697 0.267854 -0.083201 -0.489998 0.013790
-0.658351 1.115433 -0.645237 -0.229652 -0.392161 0.025512
-0.872760 0.149503 0.014933 -0.137299 -0.388549 0.017311
-0.510836 -0.536103 -0.082280 -0.167489 -0.280076 0.034625
-0.676825 -0.056207 -0.986929 -0.293229 -0.267314 0.042004
-0.812579 -0.037687 -0.616018 -0.307527 -0.246925 0.043210
-1.121723 -0.723055 0.008327 -0.151069 -0.248804 0.030968
-0.982884 -1.467101 0.633492 -0.000703 -0.202924 0.017248
-1.395944 -0.528620 0.929460 -0.066225 -0.165344 0.019234
-0.608561 0.320886 -0.221197 -0.203310 -0.021413 0.035429
-0.949112 0.300770 -0.303755 -0.281986 -0.003047 0.050683
-0.451446 0.387438 -1.082849 -0.363351 0.021951 0.053767
-0.431309 0.028102 -0.902990 -0.389877 0.078090 0.075016
-0.166808 -0.413901 -0.218534 -0.326291 0.077035 0.065233
-0.688450 -0.733542 0.525625 -0.208325 0.055246 0.063477
-0.503442 -0.841628 0.180729 -0.126170 0.086577 0.053572
-1.104520 -0.468676 1.117470 -0.245882 -0.009103 0.037399
-1.503703 -1.240966 4.032080 -0.290595 -0.071409 0.032579
-0.946829 -1.974067 6.729579 -0.454383 0.013284 0.058370
-1.578910 -1.035834 9.298854 -0.828718 -0.061008 0.073974
-0.513917 -1.560269 12.533387 -1.020962 0.139391 0.115046
-0.664226 -3.880698 18.016922 -1.036443 0.154234 0.098511
-0.729751 -6.724736 24.234935 -1.039138 0.158623 0.062929
-0.488055 -8.821114 27.035692 -1.000345 0.227181 0.058997
-0.962695 -8.097365 27.229879 -1.098183 0.086840 0.024387
-0.969793 -8.752609 25.285240 -1.025091 0.003723 0.009854
-1.227914 -8.833732 23.330364 -1.088439 -0.126229 -0.007858
-1.208967 -8.504485 20.107599 -1.170777 -0.226130 -0.010989
-0.940635 -9.100454 18.014751 -1.043912 -0.236490 -0.003789
-0.690592 -8.442392 14.833352 -0.924720 -0.281301 -0.009289
-0.258909 -8.057210 11.226557 -0.687418 -0.289852 -0.015667
-0.313337 -6.755401 7.896108 -0.497007 -0.309232 -0.010454
-0.533971 -4.354469 4.662053 -0.494962 -0.400172 -0.028125
-0.851309 -3.522427 2.885754 -0.230564 -0.507600 -0.051090
-1.049373 -2.567340 0.787877 -0.055061 -0.497435 -0.041266
-1.304425 -0.739941 -1.387660 -0.046705 -0.597035 -0.059903
-1.396509 -0.501961 -1.590013 0.120685 -0.618185 -0.070398
-1.020460 -1.083521 -1.258688 0.294021 -0.557317 -0.072108
-0.983280 -0.723934 -2.049820 0.271107 -0.568218 -0.082443
-0.945343 -0.728611 -2.574106 0.266742 -0.558895 -0.083165
-0.806191 -0.899564 -2.316535 0.290546 -0.572693 -0.088873
-0.954347 -0.745185 -2.089925 0.274428 -0.594210 -0.090172
-1.099311 -0.668740 -2.273349 0.266485 -0.603183 -0.093708
-1.178299 -0.509625 -2.108738 0.266914 -0.627443 -0.107920
-1.221051 -0.871238 -1.833331 0.338620 -0.614322 -0.115625
-1.310916 -1.021107 -1.711433 0.370058 -0.617452 -0.121375
-1.355843 -1.166188 -1.485043 0.389984 -0.619054 -0.123938
-1.188476 -1.133829 -1.817590 0.357511 -0.560276 -0.107967
-1.186127 -1.125893 -1.457972 0.313751 -0.579046 -0.111714
-1.187304 -1.333697 -0.946589 0.310275 -0.564829 -0.107351
-1.008398 -1.868645 -0.202247 0.307202 -0.546726 -0.106414
-0.879796 -0.914568 -1.030791 0.076838 -0.531633 -0.102288
-1.313841 -0.989649 -0.077035 0.013838 -0.629056 -0.123784
-0.899788 -1.983322 1.799383 0.070749 -0.540217 -0.120130
-1.006607 -0.714613 1.508620 -0.187723 -0.543093 -0.124451
-1.252234 -0.734677 1.591028 -0.261794 -0.578303 -0.133545
-0.662347 -1.226201 3.075741 -0.253540 -0.384048 -0.099767
-0.884465 -0.906658 3.146064 -0.400260 -0.378042 -0.106667
-0.989094 -1.349072 4.342894 -0.409317 -0.323233 -0.102909
-0.799915 -2.000879 5.310454 -0.431595 -0.210463 -0.086307
-0.852778 -2.125137 6.504738 -0.476839 -0.239949 -0.094480
-0.811960 -2.388118 7.346209 -0.480134 -0.191304 -0.071557
-0.869156 -2.453655 8.278270 -0.465772 -0.241318 -0.087514
-1.048703 -1.723305 7.845454 -0.567664 -0.254104 -0.089565
-0.997635 -1.489394 7.738092 -0.607037 -0.258471 -0.096794
-0.964433 -1.756885 8.139534 -0.585872 -0.242671 -0.101365
-0.795690 -1.995102 8.257033 -0.562069 -0.201594 -0.102303
-0.837152 -1.884574 7.576167 -0.547612 -0.226940 -0.107984
-0.840694 -2.102301 7.176979 -0.488420 -0.229665 -0.102839
-0.647249 -1.932085 6.420437 -0.467169 -0.213478 -0.099667
-0.853268 -1.440453 5.813165 -0.462428 -0.264893 -0.104304
-0.763164 -0.852915 4.942810 -0.461545 -0.262680 -0.099002
-0.808311 -0.666828 4.525456 -0.420838 -0.301616 -0.095021
-0.701778 -0.519937 4.794514 -0.388534 -0.304737 -0.084726
-0.411643 -0.418591 4.450774 -0.400892 -0.290479 -0.070242
-0.317457 -0.469942 5.099206 -0.413885 -0.304032 -0.064934
-0.070806 -1.034482 6.150078 -0.401124 -0.298176 -0.060585
-0.029162 -1.116143 7.319820 -0.439782 -0.303716 -0.061648
0.154291 -1.102698 8.223346 -0.492238 -0.298495 -0.064061
0.005027 -1.603876 9.459250 -0.470715 -0.337000 -0.069176
-0.123147 -1.232412 10.567389 -0.570579 -0.349420 -0.066328
-0.370478 -1.381062 11.715717 -0.613750 -0.363415 -0.053889
-0.365008 -2.305134 14.006243 -0.551165 -0.320208 -0.038345
-0.316117 -1.962959 14.571976 -0.700915 -0.276555 -0.023934
-0.448724 -2.526779 16.940205 -0.688649 -0.303972 -0.025106
-0.275936 -3.795891 19.597085 -0.584221 -0.282933 -0.012582
-0.343762 -2.523754 19.535590 -0.813183 -0.343245 -0.014155
-0.452421 -2.786655 21.044087 -0.825942 -0.419540 -0.027494
-0.200682 -3.917574 24.138342 -0.716348 -0.414795 -0.041673
-0.613263 -2.936324 24.144771 -0.941559 -0.500807 -0.065325
-0.891779 -3.252625 25.625120 -0.955575 -0.581152 -0.087780
-0.616735 -4.608557 28.554967 -0.793447 -0.561623 -0.093309
-0.764564 -3.954733 28.697048 -0.913833 -0.628021 -0.106994
-0.682322 -3.263447 28.923843 -1.031729 -0.647811 -0.113731
-0.448350 -4.736554 31.878907 -0.849138 -0.652140 -0.124480
-0.679897 -4.551676 32.698319 -0.932355 -0.703111 -0.135074
-0.659318 -3.972499 32.816461 -1.068465 -0.748886 -0.145224
-0.479907 -4.497049 34.690275 -0.991057 -0.772773 -0.146959
-0.403807 -4.612289 35.692330 -0.961862 -0.814708 -0.146261
-0.354966 -3.926857 35.744479 -1.063275 -0.866124 -0.145866
-0.021008 -4.246224 36.441189 -1.041251 -0.881609 -0.144166
-0.083935 -4.866641 37.843706 -0.971607 -0.923489 -0.147776
0.072071 -4.564820 37.589556 -1.025667 -0.932569 -0.156155
0.078618 -4.526157 37.843772 -1.017600 -0.911399 -0.154771
-0.060730 -4.754239 38.398807 -0.963273 -0.963613 -0.166715
0.160886 -4.324911 38.072006 -1.017754 -0.980701 -0.169209
-0.032720 -4.089684 38.050767 -1.040652 -1.040482 -0.176963
0.002430 -4.326198 38.407059 -0.986400 -1.092279 -0.195785
0.254819 -4.058194 38.405160 -0.994334 -1.050833 -0.193759
0.395376 -3.906014 38.455113 -0.984856 -1.039637 -0.195928
-0.387342 -4.054474 38.949557 -0.941119 -1.153462 -0.213336
-0.122196 -4.042747 39.099315 -0.935734 -1.042092 -0.198734
-0.114136 -3.920433 39.390179 -0.928145 -1.019805 -0.193793
0.440642 -3.741267 39.702189 -0.916150 -0.904838 -0.176027
-0.663636 -3.356851 39.608391 -0.921080 -1.142769 -0.224474
-0.341159 -3.145299 39.385682 -0.928127 -1.057517 -0.213750
-0.510674 -3.022971 39.516513 -0.917308 -1.109012 -0.221304
-0.029731 -2.706096 39.026127 -0.932916 -1.028271 -0.201092
-0.234614 -2.787131 38.910864 -0.882473 -1.042272 -0.197513
-0.355357 -2.733810 38.221361 -0.857511 -1.003096 -0.190713
-0.674790 -2.741180 37.579603 -0.817152 -1.033430 -0.199146
-0.566030 -2.683353 36.710687 -0.797740 -0.983780 -0.194458
-0.440788 -2.586329 35.952484 -0.798349 -0.987095 -0.204510
-0.717035 -2.296374 34.969048 -0.808948 -0.993074 -0.204300
-0.296548 -2.287178 34.377124 -0.770955 -0.960644 -0.204941
-0.586416 -2.031605 33.670230 -0.745904 -0.967263 -0.194378
-0.561667 -1.829050 32.805983 -0.701398 -0.979039 -0.200973
-0.469472 -1.830150 31.955594 -0.660113 -0.906269 -0.192482
-0.742224 -2.000407 31.181420 -0.619916 -0.907768 -0.197231
-1.102037 -2.121758 30.305936 -0.589279 -0.974393 -0.217611
-0.892743 -1.870570 28.972945 -0.601611 -0.902544 -0.214344
-1.163032 -1.794576 27.848998 -0.558171 -0.978940 -0.236585
-1.224344 -1.569782 26.284252 -0.536915 -0.961272 -0.227731
-1.314104 -1.120118 24.738815 -0.541141 -0.974382 -0.228091
-1.132897 -1.483450 23.273899 -0.444489 -0.967867 -0.225133
-1.287230 -1.055937 20.994709 -0.451533 -0.992214 -0.226663
-1.473479 -0.843209 18.644339 -0.405602 -1.031197 -0.241618
-1.590095 -1.717172 17.569319 -0.209268 -1.010889 -0.237027
-1.505012 -0.934457 14.589170 -0.250286 -1.002758 -0.225777
-1.672644 -0.503421 13.112891 -0.233858 -1.076864 -0.229360
-1.555110 -1.326615 12.409232 -0.052953 -1.078634 -0.214867
-1.276786 -0.951251 10.639282 -0.041754 -1.061168 -0.200710
-1.632578 -0.410144 9.500023 -0.028718 -1.190811 -0.217299
-1.597724 -0.613663 8.031183 0.044645 -1.153320 -0.196336
-1.227488 -0.279187 6.859628 0.052666 -1.058798 -0.178206
-1.445073 -0.523213 6.238492 0.146580 -1.080051 -0.175764
-1.127287 -0.294542 5.012462 0.143571 -0.930770 -0.131774
-1.358706 0.055331 3.878841 0.134343 -0.960900 -0.131617
-1.257603 -0.514989 4.190540 0.251436 -0.879691 -0.112544
-0.897853 -0.449490 3.106025 0.253622 -0.767493 -0.093772
-1.212065 0.423150 1.542817 0.154636 -0.794504 -0.098877
-1.247286 -0.304165 1.905299 0.280010 -0.755243 -0.096343
-1.224378 -0.468012 1.239997 0.323044 -0.722044 -0.088306
-1.561176 0.677479 -0.578583 0.169000 -0.765103 -0.086793
-1.361807 0.485201 -0.468825 0.221703 -0.734813 -0.085413
-1.033997 -0.971313 0.040934 0.420689 -0.650655 -0.074683
-1.264526 0.661789 -1.821045 0.221806 -0.681504 -0.081489
-1.275577 0.125982 -2.135254 0.291382 -0.673365 -0.087921
-1.209763 -0.542666 -1.058990 0.395485 -0.650250 -0.090149
-1.390581 0.461773 -3.110814 0.248857 -0.693341 -0.092931
-1.332927 -0.139448 -2.955656 0.334054 -0.682794 -0.091596
-1.023978 0.081135 -2.591983 0.309675 -0.649110 -0.092502
-1.441658 0.111757 -2.895658 0.297132 -0.751018 -0.116354
-1.415826 -0.553428 -2.989849 0.381665 -0.713482 -0.105926
-1.354214 0.150270 -3.397899 0.277059 -0.723991 -0.109335
-1.410428 -0.387701 -2.448091 0.364772 -0.730882 -0.108269
-0.797008 -0.414795 -2.785582 0.352019 -0.609606 -0.091312
-1.384935 0.309983 -3.691299 0.254032 -0.744263 -0.115287
-1.259186 -0.587752 -2.441206 0.390762 -0.676356 -0.101807
-0.886915 -0.433994 -2.249303 0.371965 -0.633491 -0.099067
-1.618079 0.621428 -4.070577 0.206494 -0.755175 -0.106223
-1.154874 -0.263218 -2.714645 0.346746 -0.660496 -0.091640
-0.828914 -0.319152 -2.345317 0.351185 -0.614597 -0.088777
-1.478269 0.524149 -3.840693 0.231536 -0.735553 -0.103635
-1.129249 -0.572436 -2.871029 0.376837 -0.642175 -0.091246
-0.973901 -0.508066 -2.490827 0.371503 -0.617954 -0.093323
-1.336267 0.299455 -3.410552 0.261285 -0.676272 -0.102108
-1.189185 -0.595446 -2.812608 0.382732 -0.636354 -0.095180
-1.133163 0.179381 -3.025235 0.280100 -0.646537 -0.100883
-1.451071 -0.178489 -3.269972 0.322956 -0.691535 -0.106849
-0.889064 -0.017369 -3.031336 0.306216 -0.588758 -0.097892
-1.376439 -0.170635 -2.867583 0.325478 -0.707848 -0.121372
-1.174670 -0.372684 -2.700112 0.342603 -0.631246 -0.101136
-1.048825 0.115606 -3.424933 0.279549 -0.651968 -0.106902
-1.333098 -0.454310 -2.669537 0.377555 -0.689207 -0.110008
-0.916774 0.031740 -3.307833 0.301357 -0.632122 -0.100547
-1.477270 -0.255871 -2.726571 0.360926 -0.750178 -0.117174
-1.040601 0.012084 -3.189855 0.320416 -0.650942 -0.096108
-1.590476 -0.058130 -2.855633 0.342276 -0.776604 -0.116911
-1.071252 -0.245391 -2.838690 0.346009 -0.650892 -0.088562
-1.182408 0.171082 -3.237321 0.290379 -0.714329 -0.104075
-1.279460 -0.458855 -2.634601 0.370924 -0.700266 -0.098484
-0.927541 0.194073 -3.339234 0.275996 -0.649157 -0.095844
-1.579540 -0.225634 -2.570085 0.348616 -0.762471 -0.115552
-1.118460 -0.110043 -2.720502 0.327289 -0.669355 -0.092807
-1.126941 0.717513 -3.338888 0.221637 -0.715026 -0.097495
-1.601461 0.099151 -2.558746 0.310167 -0.773714 -0.100157
-1.045447 0.338215 -2.913577 0.268829 -0.703190 -0.096893
-1.380444 0.736764 -3.416615 0.201349 -0.773539 -0.110814
-1.386084 0.057402 -2.359388 0.286178 -0.765736 -0.109820
-1.038060 0.362047 -2.582167 0.226698 -0.712473 -0.091514
-1.509181 1.234296 -3.186884 0.091873 -0.802749 -0.092838
-1.302122 0.859107 -2.762234 0.142402 -0.762792 -0.081769
-1.154849 0.659649 -2.076518 0.162340 -0.753359 -0.088900
-1.458427 1.454659 -2.981875 0.018437 -0.816028 -0.102279
-1.342050 1.319497 -2.755101 0.013695 -0.780625 -0.100674
-1.311754 0.972479 -2.204040 0.050009 -0.787452 -0.105865
-1.357919 1.129195 -2.516676 0.006886 -0.790748 -0.096493
-1.278946 1.392724 -2.684695 -0.053502 -0.776304 -0.086423
-1.206616 1.346485 -2.511415 -0.074363 -0.775725 -0.084650
-1.294227 1.259122 -2.172895 -0.083297 -0.789240 -0.089441
-1.316275 1.453330 -2.018862 -0.124180 -0.784562 -0.093768
-1.246481 1.322493 -2.182388 -0.126596 -0.767754 -0.096977
-1.271426 1.226705 -1.996895 -0.124625 -0.767655 -0.098978
-1.177152 0.964534 -1.710724 -0.105896 -0.738549 -0.093078
-1.169187 0.718965 -1.488346 -0.085502 -0.729987 -0.091066
-1.173829 0.883041 -1.735561 -0.133655 -0.718521 -0.088233
-1.105813 0.550319 -1.597894 -0.114550 -0.698458 -0.089432
-1.054602 0.210277 -0.798499 -0.075223 -0.678603 -0.094198
-1.103603 0.061341 -0.798069 -0.078357 -0.671803 -0.096520
-1.133104 0.267786 -1.079022 -0.123421 -0.658841 -0.096719
-1.119178 0.485335 -0.635383 -0.166141 -0.638987 -0.096340
-1.115966 -0.175457 -0.558290 -0.109976 -0.627955 -0.092275
-1.093655 0.294762 -0.800328 -0.199563 -0.589679 -0.082518
-0.978548 0.839302 -1.268862 -0.288884 -0.562814 -0.080916
-1.045282 -0.450379 0.038206 -0.122125 -0.501883 -0.069399
-0.765715 0.250059 -0.761768 -0.238647 -0.428215 -0.065108
-0.947606 0.026030 -0.561577 -0.202931 -0.406908 -0.064545
-0.623891 0.003160 0.075585 -0.201405 -0.303405 -0.061707
-1.084175 -0.404650 -0.496474 -0.175592 -0.359951 -0.073195
-0.929117 0.131837 0.066444 -0.247558 -0.269849 -0.053803
-0.509123 0.056074 0.213545 -0.246335 -0.198289 -0.040740
-0.910919 -0.057279 -0.482581 -0.260777 -0.187039 -0.033257
-0.593962 -0.153180 -0.612783 -0.250043 -0.120051 -0.034526
-0.754724 -0.185734 1.082948 -0.211357 -0.130746 -0.042265
-0.400588 -0.281041 0.064692 -0.219281 -0.044109 -0.025784
-0.634992 -0.219292 -0.180829 -0.232509 -0.043376 -0.015077
-0.403585 -0.119639 -0.062234 -0.240945 -0.007901 -0.003532
-0.730112 -0.299155 -0.762864 -0.241804 -0.046257 0.004188
-0.688948 -0.156917 -0.697525 -0.278067 -0.033234 0.008573
-0.912726 -0.254915 0.154216 -0.304798 -0.075923 0.002649
-0.582853 -0.655105 1.127120 -0.304606 0.018950 0.019886
-0.707488 -0.956145 2.362839 -0.342749 0.032787 0.030468
-0.711285 -1.328390 4.299859 -0.400253 0.065557 0.045115
-0.613877 -2.007107 6.678578 -0.434595 0.098354 0.058295
-0.521724 -2.073016 8.209244 -0.541010 0.106194 0.062670
-0.592188 -2.083577 9.885223 -0.651515 0.122681 0.070389
-0.795000 -2.247140 11.311004 -0.769908 0.061524 0.062797
-0.665488 -2.940187 13.072209 -0.815169 0.095728 0.069867
-0.544098 -3.618269 15.162612 -0.830108 0.067086 0.054698
-0.563259 -4.160280 15.674954 -0.858793 0.043643 0.046686
-0.460068 -4.368538 16.438641 -0.898161 0.053865 0.041176
-0.861672 -5.653295 16.940565 -0.805904 -0.027139 0.019185
-0.360439 -6.250310 17.636925 -0.744250 0.057900 0.017628
-0.376534 -5.918974 15.967684 -0.770300 0.016007 0.012149
-0.215525 -5.852759 15.058916 -0.688816 -0.047219 0.005957
0.072758 -5.938101 14.120244 -0.563253 -0.046872 0.018725
0.195440 -5.569241 12.085445 -0.537932 -0.114879 0.010460
-0.305573 -5.024294 10.542958 -0.552193 -0.217997 0.001794
-0.126553 -5.253732 9.465734 -0.478760 -0.239048 -0.015247
-0.210610 -5.218734 8.536114 -0.414039 -0.237016 -0.016969
-0.450817 -4.574152 7.489483 -0.379580 -0.337554 -0.038905
-0.378336 -4.127082 6.249757 -0.367843 -0.291513 -0.019960
-0.005453 -3.512244 5.332337 -0.364194 -0.269791 -0.015642
-0.262999 -2.967233 4.968751 -0.374237 -0.315034 -0.011888
-0.003397 -2.899419 4.572185 -0.337837 -0.277665 0.000164
-0.048703 -2.648133 4.531152 -0.327054 -0.304201 0.001504
-0.154893 -2.321275 4.391077 -0.354988 -0.346715 -0.003973
-0.099388 -2.043947 4.638758 -0.400525 -0.366986 -0.010390
-0.232765 -2.059917 5.188440 -0.425164 -0.429625 -0.024737
-0.277532 -1.929034 5.830808 -0.471341 -0.481157 -0.035489
-0.336459 -1.756809 6.282869 -0.520985 -0.526591 -0.040443
-0.300357 -1.537373 7.141491 -0.563406 -0.544638 -0.039732
-0.388377 -1.446621 7.953518 -0.598919 -0.564453 -0.039648
-0.043537 -1.259259 8.601907 -0.662790 -0.483485 -0.031540
-0.432638 -1.124751 9.455971 -0.719874 -0.500462 -0.039388
-0.472286 -1.439398 10.272119 -0.723624 -0.459901 -0.044507
-0.571995 -1.537788 11.221673 -0.753695 -0.399665 -0.047830
-0.795063 -1.714470 11.783259 -0.754473 -0.414707 -0.061237
-0.965437 -1.575284 12.167343 -0.791584 -0.417685 -0.072940
-0.918575 -1.529484 12.494379 -0.803442 -0.395966 -0.075744
-1.019349 -1.553200 12.826540 -0.795405 -0.438900 -0.086302
-0.972836 -1.305668 12.721986 -0.829127 -0.444205 -0.082727
-0.916735 -1.213921 12.618430 -0.841076 -0.467341 -0.083023
-0.842021 -1.361878 12.784912 -0.817508 -0.475224 -0.076109
-0.665887 -1.383471 12.694205 -0.811859 -0.457882 -0.064290
-0.636868 -1.445044 12.463480 -0.789717 -0.469385 -0.057406
-0.506572 -1.575576 12.465912 -0.754939 -0.449589 -0.048273
-0.404246 -1.540623 12.251182 -0.748277 -0.427007 -0.041390
-0.443597 -1.528419 12.241971 -0.741242 -0.427205 -0.041408
-0.463004 -1.667229 12.380337 -0.718338 -0.415894 -0.041952
-0.393451 -1.694554 12.480545 -0.723098 -0.399476 -0.044366
-0.443438 -1.688997 12.806550 -0.743691 -0.413194 -0.048563
-0.473223 -1.746856 13.219699 -0.762060 -0.424958 -0.047781
-0.464179 -1.891015 13.740467 -0.781464 -0.431539 -0.044104
-0.376055 -2.095947 14.745427 -0.793385 -0.442638 -0.045059
-0.320326 -2.203545 15.101827 -0.851573 -0.431303 -0.035513
-0.301356 -2.328015 16.582304 -0.898189 -0.449638 -0.038739
-0.430863 -3.426995 19.043629 -0.809419 -0.469307 -0.042488
-0.148211 -3.513632 20.435237 -0.903679 -0.379334 -0.026100
-0.370778 -3.680109 22.702031 -0.978576 -0.449537 -0.044056
-0.650217 -4.112786 25.379041 -1.021612 -0.461983 -0.038945
-0.288646 -4.799999 28.631015 -0.992806 -0.421048 -0.040386
-0.394046 -4.811612 30.920042 -1.113338 -0.474529 -0.056100
-0.531613 -5.096269 34.237667 -1.185114 -0.537753 -0.070946
-0.541564 -5.473709 38.029120 -1.221165 -0.557291 -0.079081
-0.515537 -6.141370 40.915367 -1.222459 -0.562022 -0.082470
-0.470915 -6.075593 43.921427 -1.308568 -0.591640 -0.093915
-0.795463 -6.507032 46.316058 -1.322956 -0.684825 -0.112355
-0.599284 -6.475701 47.313863 -1.350324 -0.688721 -0.120773
-0.389545 -6.907383 48.963822 -1.312599 -0.739827 -0.136171
-0.140256 -7.510419 50.264023 -1.232617 -0.804235 -0.143767
-0.134875 -7.850706 50.390031 -1.208279 -0.943522 -0.162913
0.617428 -7.885201 50.024088 -1.248250 -0.930237 -0.158396
1.069877 -8.094250 49.753148 -1.222207 -1.009776 -0.174290
0.661435 -8.020648 49.439222 -1.163164 -1.185040 -0.189579
1.289734 -7.381954 47.999285 -1.152431 -1.156455 -0.183704
1.214494 -6.681557 46.668546 -1.155464 -1.203575 -0.182824
1.636022 -6.373183 45.171503 -1.142407 -1.207795 -0.182405
1.627260 -6.478040 44.074714 -1.098493 -1.251161 -0.191321
1.600186 -6.201683 42.319678 -1.093882 -1.309140 -0.213375
2.174919 -5.958425 40.598776 -1.069047 -1.185981 -0.204140
0.728157 -5.593269 38.961133 -1.000629 -1.462492 -0.254856
1.183772 -4.779357 36.883814 -1.011241 -1.297710 -0.231837
1.210690 -4.429356 35.884175 -0.961215 -1.251961 -0.241535
0.341595 -3.931424 34.140575 -0.925865 -1.343690 -0.266929
0.703849 -2.861287 32.549193 -0.977851 -1.168702 -0.247626
-0.140474 -2.614468 31.124973 -0.934692 -1.304830 -0.285908
-0.115536 -2.681606 30.860807 -0.880848 -1.263638 -0.289593
-0.233821 -2.720739 30.431779 -0.836116 -1.247737 -0.286487
-0.537826 -1.762639 28.529968 -0.920698 -1.255088 -0.284744
-0.704805 -1.305370 27.269194 -0.902174 -1.177146 -0.271644
-1.197436 -1.783909 27.059159 -0.750466 -1.234004 -0.297924
-1.711755 -1.671475 25.892267 -0.712754 -1.227351 -0.296857
-1.172405 -0.576207 22.920134 -0.815456 -1.119692 -0.292109
-2.046002 -0.379582 21.526127 -0.733836 -1.312197 -0.333002
-1.834524 -1.281216 20.613542 -0.485769 -1.238497 -0.320730
-1.908846 0.018378 16.680361 -0.466053 -1.320290 -0.332752
-2.402906 0.019343 14.351882 -0.368381 -1.355413 -0.321548
-1.523880 0.047730 12.719264 -0.300691 -1.192963 -0.304837
-2.364368 -0.599885 12.182395 -0.131940 -1.375669 -0.343057
-2.504589 -0.054369 9.938312 -0.148024 -1.323287 -0.329497
-2.440357 0.327303 8.782108 -0.131158 -1.339742 -0.341731
-2.719120 -0.524485 8.308223 0.043215 -1.360002 -0.338706
-2.289339 -0.020052 7.148261 0.013278 -1.245532 -0.305837
-2.428844 0.622862 5.705675 -0.037180 -1.250681 -0.289550
-2.321585 -0.020366 6.074998 0.073637 -1.197075 -0.266827
-2.003785 0.019256 5.576828 0.083875 -1.101236 -0.237691
-1.970811 0.587966 4.181338 0.020583 -1.070208 -0.220498
-1.803823 0.584136 4.085597 0.042416 -1.003998 -0.202794
-1.292202 -0.224863 4.434239 0.170048 -0.885578 -0.178863
-1.501296 -0.350628 4.250955 0.202178 -0.891076 -0.166680
-1.326409 0.178317 2.924109 0.123916 -0.841303 -0.144371
-0.942676 0.208393 2.418124 0.116867 -0.741340 -0.116971
-1.286972 -0.628281 3.044739 0.248303 -0.816627 -0.123930
-1.277263 -0.438966 2.749761 0.223472 -0.775094 -0.107028
-0.967485 0.028383 1.544536 0.162421 -0.733657 -0.100034
-1.202147 -0.212520 1.662784 0.209975 -0.769329 -0.105027
-1.151304 -0.528889 1.929236 0.266158 -0.754451 -0.102388
-0.400130 -0.535600 1.355037 0.261886 -0.610606 -0.077130
-1.000203 -0.550007 1.224129 0.265341 -0.753069 -0.101848
-0.709516 -0.587548 1.066118 0.269319 -0.716634 -0.093523
-0.490320 -0.788721 1.139273 0.292572 -0.669698 -0.085140
-0.662887 -1.492432 1.594223 0.379466 -0.744640 -0.102962
-0.896526 -1.286893 1.776386 0.329992 -0.728691 -0.094522
-0.352597 -1.326147 1.746864 0.309409 -0.679059 -0.102801
-0.806777 -1.887444 2.794939 0.361027 -0.733717 -0.107098
-0.494955 -2.261947 3.767256 0.368485 -0.670621 -0.097234
-0.856797 -2.001846 3.741077 0.285103 -0.742579 -0.100475
-0.700031 -1.819382 4.733752 0.210167 -0.759590 -0.099201
-0.186389 -2.657725 6.291430 0.240790 -0.642355 -0.064941
0.049910 -2.626560 7.562488 0.118732 -0.660213 -0.064682
-0.199024 -2.784210 9.013630 0.006358 -0.692679 -0.059282
0.268908 -3.139693 10.163039 -0.115784 -0.594417 -0.039706
0.124276 -3.545592 13.066870 -0.184766 -0.658398 -0.058419
0.106058 -3.786038 14.470328 -0.316997 -0.545165 -0.032723
0.260060 -3.351422 15.293852 -0.432751 -0.534560 -0.045686
-0.750975 -3.994467 17.561999 -0.443457 -0.679417 -0.080220
0.019762 -4.298726 18.847888 -0.541239 -0.415764 -0.042268
-0.509470 -4.748684 20.516444 -0.605976 -0.515836 -0.076619
-0.343919 -5.708840 22.303163 -0.616979 -0.416377 -0.058403
0.118178 -5.707510 23.214706 -0.704313 -0.351024 -0.051816
-0.093367 -5.982218 23.799599 -0.713713 -0.433817 -0.060092
0.236343 -6.650826 25.204590 -0.654578 -0.404704 -0.053176
0.231486 -6.483333 25.310606 -0.710770 -0.428767 -0.059591
-0.036150 -6.349890 25.336568 -0.753618 -0.495334 -0.076494
-0.239306 -6.301817 25.733530 -0.777786 -0.508682 -0.083504
-0.217036 -6.557763 26.174078 -0.752777 -0.515059 -0.096570
-0.253917 -6.394951 26.624147 -0.771127 -0.515025 -0.099570
-0.253201 -6.234665 26.580339 -0.786439 -0.539729 -0.103493
-0.130342 -6.076349 27.085727 -0.803486 -0.546194 -0.099958
0.233891 -6.238214 28.125988 -0.797087 -0.524582 -0.095788
0.257425 -6.260873 28.992025 -0.841146 -0.556575 -0.100677
0.288467 -6.070410 30.183613 -0.907516 -0.575911 -0.109148
0.288768 -6.265357 31.700123 -0.906079 -0.617638 -0.120155
0.099612 -6.038947 33.182324 -0.939626 -0.691256 -0.132854
-0.120615 -5.253429 34.290122 -1.030626 -0.754596 -0.142215
-0.319971 -5.228746 35.688090 -1.027454 -0.801704 -0.147458
-0.278226 -5.445006 37.252036 -1.007811 -0.791495 -0.146002
-0.175224 -5.265239 38.248414 -1.052512 -0.781227 -0.147656
-0.183758 -5.208123 38.668295 -1.070645 -0.795633 -0.150814
0.075265 -5.040996 39.238877 -1.041649 -0.772574 -0.146330
0.119815 -5.026126 39.112817 -1.004551 -0.811374 -0.151994
0.170892 -4.693263 38.686777 -1.005418 -0.839113 -0.151389
-0.098887 -4.245679 37.589084 -1.030209 -0.925652 -0.161217
0.198799 -4.204958 36.616813 -1.021604 -0.888754 -0.153700
-0.052371 -4.183987 35.794011 -1.003623 -1.002951 -0.185775
-0.293839 -3.897479 34.725046 -1.003850 -1.076743 -0.203976
-0.300952 -3.610864 33.608465 -0.969155 -1.092837 -0.213702
-0.104541 -3.317340 32.555707 -0.899955 -1.081811 -0.217256
-0.110822 -3.053800 31.321625 -0.840048 -1.074984 -0.217704
0.015333 -2.706886 30.103540 -0.845747 -1.021122 -0.210450
0.104030 -2.561380 29.032516 -0.844094 -0.984354 -0.209364
-0.314345 -2.920253 28.320486 -0.768273 -1.014889 -0.216451
-0.469933 -2.713156 27.181962 -0.779680 -1.010175 -0.219251
-0.987239 -2.303963 25.644953 -0.778367 -1.071042 -0.235304
-0.923488 -2.254991 24.299767 -0.711625 -1.071562 -0.240740
-1.165399 -1.792191 22.494401 -0.690675 -1.113413 -0.242442
-1.231876 -1.231924 20.274635 -0.691579 -1.178003 -0.246222
-1.420305 -1.527396 19.797662 -0.577253 -1.213193 -0.240410
-0.919774 -2.147417 18.730675 -0.439030 -1.171195 -0.229839
-1.330644 -1.317458 16.261056 -0.483344 -1.259267 -0.234387
-1.205813 -0.917226 14.665990 -0.453148 -1.284319 -0.241699
-1.153274 -1.794569 14.189813 -0.250889 -1.239732 -0.232852
-1.089494 -1.443249 12.791594 -0.226820 -1.221885 -0.235042
-1.746585 -0.225761 10.508250 -0.329061 -1.321605 -0.248407
-1.766590 -0.878137 10.236498 -0.176136 -1.294654 -0.236992
-1.457067 -0.933826 9.658116 -0.113158 -1.235637 -0.220067
-1.714762 -0.099442 7.934066 -0.179385 -1.277739 -0.216671
-1.683718 -0.166897 7.673109 -0.114020 -1.253364 -0.207747
-1.492907 -0.803544 7.546613 0.012183 -1.179299 -0.195045
-1.449013 -0.525538 6.811212 0.005032 -1.136033 -0.188065
-1.745791 0.281541 5.209820 -0.079717 -1.152753 -0.189237
-1.440182 -0.250512 5.094389 0.015273 -1.025997 -0.164868
-1.273642 -1.031406 5.554208 0.146658 -0.968886 -0.152213
-1.330959 -0.492317 4.234273 0.084003 -0.917213 -0.132190
-1.298378 -0.007962 3.180533 0.039521 -0.915227 -0.132635
-1.242677 -0.395172 3.063450 0.115825 -0.864338 -0.121424
-1.040479 -0.809612 3.325772 0.198647 -0.837331 -0.122573
-1.187508 -0.509851 2.642838 0.173929 -0.863256 -0.127772
-1.075873 -0.238955 1.863017 0.145095 -0.835278 -0.120850
-0.916953 -0.509995 1.959107 0.191994 -0.828932 -0.118896
-0.845426 -1.043961 2.216262 0.261823 -0.805841 -0.107679
-0.607362 -1.074613 2.397069 0.252110 -0.774647 -0.100245
-0.917498 -1.221393 2.634309 0.250459 -0.821604 -0.102404
-0.663044 -1.442679 3.191038 0.255913 -0.738346 -0.086767
-0.599289 -1.364034 3.799273 0.216495 -0.730436 -0.090188
-0.828514 -1.586343 4.552832 0.200901 -0.739564 -0.085574
-0.077185 -1.949618 5.943795 0.174444 -0.621042 -0.067190
-0.691783 -1.756265 6.824009 0.028010 -0.724368 -0.070250
-0.139563 -1.916950 8.547794 -0.069322 -0.686647 -0.066106
-0.375080 -2.757266 10.768618 -0.086435 -0.699699 -0.057919
0.471142 -2.544769 12.671267 -0.230600 -0.612276 -0.055158
-0.473607 -2.770370 14.593886 -0.308678 -0.694309 -0.061877
0.078331 -2.612585 15.941601 -0.444294 -0.538444 -0.051800
-0.528499 -3.279374 18.770299 -0.460782 -0.589119 -0.080251
-0.305507 -3.746767 20.481454 -0.558103 -0.386759 -0.050806
-0.660798 -4.213723 23.091237 -0.625295 -0.445899 -0.082776
-0.521898 -4.820911 24.671064 -0.671936 -0.327853 -0.053717
-0.029750 -4.914150 26.267794 -0.741527 -0.269451 -0.047012
-0.336620 -5.569818 28.390158 -0.692645 -0.327103 -0.046764
0.212868 -5.691891 29.211057 -0.751045 -0.232501 -0.030785
0.126038 -5.341375 30.458004 -0.859467 -0.270067 -0.044716
-0.038596 -5.982593 31.682069 -0.857725 -0.295277 -0.056473
-0.166641 -6.781817 33.482065 -0.837461 -0.296889 -0.063116
-0.244200 -6.649132 33.694531 -0.916652 -0.333012 -0.073719
-0.375761 -6.811887 34.258966 -0.930451 -0.414993 -0.087845
-0.067112 -7.321564 35.341842 -0.880945 -0.429546 -0.090069
0.478513 -7.702138 36.387935 -0.840554 -0.423177 -0.092654
0.417431 -7.568881 36.588646 -0.877045 -0.493918 -0.101816
0.262630 -7.118753 36.384258 -0.956149 -0.554251 -0.110377
0.283260 -7.249157 36.987149 -0.945340 -0.567493 -0.114875
0.127574 -7.501159 37.763419 -0.923392 -0.608904 -0.123919
0.114226 -7.148603 37.568962 -0.983558 -0.638851 -0.131003
0.233279 -6.635408 37.068212 -1.057811 -0.666079 -0.136667
0.044579 -6.455780 37.045103 -1.067872 -0.763079 -0.148601
0.129989 -6.395350 37.300007 -1.046656 -0.832934 -0.158076
0.159817 -6.000310 37.021949 -1.074521 -0.889687 -0.161009
0.178484 -5.469586 36.585527 -1.121408 -0.934670 -0.163670
0.272700 -5.342808 36.738573 -1.108976 -0.936487 -0.163994
0.115907 -5.317081 36.893507 -1.095397 -0.933790 -0.164266
0.039900 -4.900913 36.855975 -1.133589 -0.918692 -0.171319
-0.260905 -4.462975 36.600441 -1.173747 -0.907233 -0.170789
-0.272509 -4.340852 36.799932 -1.159980 -0.904798 -0.175592
-0.307711 -4.129034 36.971822 -1.152749 -0.906777 -0.173490
-0.079731 -3.731726 36.949463 -1.172078 -0.900155 -0.169982
-0.030998 -3.364016 36.829050 -1.191163 -0.906406 -0.166134
-0.008921 -3.351819 36.813978 -1.167955 -0.912589 -0.168037
-0.482291 -3.286105 37.021021 -1.147864 -0.985339 -0.181941
-0.643464 -2.986734 36.457328 -1.159343 -0.977210 -0.184328
-0.608435 -2.904308 36.065807 -1.133922 -0.953455 -0.188000
-0.629233 -2.731033 35.696280 -1.114632 -0.962477 -0.197141
-0.815027 -2.775865 35.164436 -1.067743 -1.019138 -0.211048
-0.558185 -2.646995 34.335282 -1.042956 -1.011871 -0.218346
-0.585857 -2.393451 33.076071 -1.025352 -1.002807 -0.218908
-0.548561 -2.402669 32.412643 -1.002317 -1.024754 -0.228811
-0.756107 -2.394885 31.757710 -0.975706 -1.039912 -0.230389
-0.461527 -2.400622 30.979324 -0.944512 -0.996740 -0.229177
-0.807483 -2.207916 29.973131 -0.923725 -1.063756 -0.237486
-0.856524 -1.944837 28.622045 -0.897811 -1.059107 -0.228516
-1.017972 -1.701035 27.358515 -0.849792 -1.099543 -0.234047
-1.084698 -1.750306 26.049495 -0.766267 -1.115113 -0.233740
-1.089647 -1.705927 24.830613 -0.706263 -1.129997 -0.238057
-1.249826 -2.015441 23.609025 -0.622728 -1.138979 -0.241483
-1.153752 -1.781804 21.375499 -0.629928 -1.090918 -0.235721
-1.479996 -1.243090 19.050179 -0.650775 -1.147144 -0.241066
-1.679658 -1.849877 18.426538 -0.474678 -1.215571 -0.243892
-1.254092 -2.031264 16.827941 -0.361252 -1.159984 -0.218978
-1.058286 -0.924529 14.024366 -0.422287 -1.208836 -0.215574
-1.335824 -1.040403 12.598631 -0.305547 -1.312254 -0.218476
-1.034691 -1.300490 11.514649 -0.200796 -1.241333 -0.198869
-1.120102 -0.915711 10.256208 -0.187277 -1.260015 -0.203277
-1.672950 -1.179924 9.308433 -0.085429 -1.320524 -0.207965
-1.311018 -0.774120 7.688831 -0.083921 -1.208869 -0.185593
-1.448924 -0.522112 6.907752 -0.049992 -1.224459 -0.186312
-1.550077 -1.083252 6.484217 0.086409 -1.202279 -0.175469
-1.242200 -0.544266 5.148763 0.043904 -1.080146 -0.147770
-1.494567 0.053639 3.839753 0.000767 -1.106744 -0.152000
-1.558176 -0.586697 3.833282 0.120500 -1.045497 -0.139964
-0.955963 -0.625838 3.489343 0.150941 -0.873188 -0.116063
-1.064495 0.001391 2.030429 0.090167 -0.878605 -0.121214
-1.584782 -0.192984 1.990431 0.154193 -0.931575 -0.130173
-1.102656 -0.559406 1.868131 0.232178 -0.781987 -0.105511
-1.200308 -0.378312 1.042069 0.226588 -0.806907 -0.113122
-1.445510 0.265943 -0.130022 0.163741 -0.837894 -0.115195
-1.255336 0.068136 0.032345 0.207166 -0.800375 -0.111524
-0.980630 -0.756129 0.494886 0.335969 -0.752059 -0.106650
-1.078952 -0.554785 -0.080545 0.318461 -0.771037 -0.109038
-1.386883 0.167559 -1.018367 0.231373 -0.814764 -0.111077
-1.051682 -0.270258 -0.788913 0.302334 -0.734192 -0.097079
-0.701586 -1.082175 0.131921 0.421894 -0.684774 -0.091333
-1.127442 -0.875538 0.062260 0.395119 -0.744287 -0.091854
-0.524654 -0.333166 -0.556278 0.299279 -0.648801 -0.072994
-0.797349 -0.507405 -0.071071 0.291177 -0.689376 -0.077309
-0.896021 -1.180306 1.413053 0.364454 -0.713994 -0.085532
-0.917773 -1.014096 1.560102 0.292174 -0.694756 -0.081773
-0.781109 -0.440973 1.299651 0.157087 -0.679339 -0.082353
-0.575907 -1.226881 2.958880 0.198111 -0.689353 -0.090688
-0.615715 -2.155590 4.977682 0.235408 -0.681396 -0.082268
-0.002603 -1.621536 5.807746 0.055202 -0.632526 -0.074539
-0.627454 -1.835129 7.229782 -0.028783 -0.742431 -0.081286
0.164746 -1.966069 8.998510 -0.141410 -0.606382 -0.058186
-0.424970 -2.547971 11.415745 -0.177574 -0.669892 -0.067183
0.411078 -2.163259 13.009844 -0.347156 -0.479383 -0.049640
-0.523003 -1.913301 14.545380 -0.507449 -0.537439 -0.062324
-0.219952 -2.470565 17.286219 -0.567113 -0.431949 -0.064550
-0.585852 -3.286094 19.996188 -0.615094 -0.372689 -0.059956
-0.506089 -4.231255 23.380119 -0.651323 -0.306960 -0.054175
-0.438462 -4.450870 24.933067 -0.795487 -0.236016 -0.032879
-0.111870 -5.512647 28.662761 -0.736713 -0.185995 -0.027453
0.044151 -5.880319 29.951624 -0.757205 -0.171265 -0.032609
0.228831 -5.891509 32.048795 -0.818869 -0.118316 -0.030070
-0.185394 -6.168038 33.573837 -0.881181 -0.208598 -0.052980
-0.253478 -6.321820 34.985434 -0.974846 -0.196838 -0.053694
-0.577296 -7.094510 36.632109 -0.957655 -0.278136 -0.070512
-0.387520 -8.000653 37.634260 -0.931783 -0.262262 -0.060691
-0.029333 -7.808905 37.851441 -1.055925 -0.280040 -0.060337
0.175493 -8.027927 38.003829 -1.073725 -0.340284 -0.072142
0.436267 -8.885183 39.026185 -0.955713 -0.409299 -0.090206
0.706410 -8.912799 39.192749 -0.904651 -0.431452 -0.092993
0.666820 -8.247316 38.067791 -0.947020 -0.501030 -0.103932
0.667376 -7.899407 37.345327 -0.960712 -0.534551 -0.107884
0.474330 -7.876977 37.398177 -0.945210 -0.624992 -0.124224
0.512445 -8.081982 37.290252 -0.900687 -0.645533 -0.123610
0.480517 -7.480074 36.504642 -0.966752 -0.724256 -0.142939
0.035758 -6.959597 35.571926 -1.004116 -0.854718 -0.168469
0.119725 -6.684438 35.243006 -0.984836 -0.929476 -0.190947
0.079089 -6.485841 35.185122 -0.958093 -0.967915 -0.194155
0.485436 -5.977030 34.719631 -1.005663 -0.968093 -0.197000
0.337786 -5.319200 34.077671 -1.098298 -0.977551 -0.189835
0.173771 -5.006752 33.767350 -1.125468 -1.021544 -0.199858
0.156096 -4.674719 33.768870 -1.117682 -0.947586 -0.178979
-0.026570 -4.360646 33.067389 -1.092225 -0.966536 -0.177509
-0.411298 -3.235212 31.542032 -1.178432 -1.008934 -0.183489
-0.382652 -2.822532 30.266814 -1.178697 -0.957892 -0.173814
-0.419484 -2.960126 29.790220 -1.094765 -0.980661 -0.185802
-0.982062 -3.156425 29.028714 -1.001083 -1.073473 -0.197206
-0.697469 -2.602778 26.572012 -1.026344 -0.977253 -0.176632
-1.110391 -1.783586 24.085376 -1.074824 -1.089925 -0.199730
-1.279074 -2.377571 23.652826 -0.882707 -1.150244 -0.212876
-0.538895 -2.544273 22.437095 -0.768213 -1.028383 -0.192579
-0.435208 -1.153569 19.681174 -0.828423 -1.122772 -0.214946
-1.473399 -0.690946 18.210539 -0.747809 -1.347595 -0.240276
-0.804976 -1.114926 17.269516 -0.581327 -1.244711 -0.223592
-0.976418 -0.492618 15.482487 -0.583515 -1.248822 -0.218917
-1.567147 -0.407188 14.691833 -0.524186 -1.391984 -0.248368
-1.362801 -0.411141 13.327655 -0.479697 -1.255431 -0.218347
-1.326593 -0.168596 11.842998 -0.438505 -1.235292 -0.223031
-1.818368 0.025318 11.351512 -0.414509 -1.310459 -0.233506
-1.760958 -0.266988 11.116332 -0.311409 -1.255546 -0.217921
-1.541453 -0.141599 10.005758 -0.277434 -1.214145 -0.204927
-1.731614 0.364651 8.817178 -0.295341 -1.255842 -0.202935
-1.581057 0.626701 7.743930 -0.293844 -1.206400 -0.187572
-1.533572 0.061987 8.082875 -0.167630 -1.193447 -0.189169
-1.688253 -0.075916 7.421379 -0.116752 -1.185234 -0.188287
-1.906697 0.674116 5.723105 -0.191860 -1.184453 -0.188095
-2.096121 0.755443 4.826421 -0.165166 -1.183778 -0.191795
-1.900694 -0.246534 5.418038 0.019531 -1.100653 -0.183052
-1.720950 -0.695966 4.555516 0.105009 -1.021056 -0.164449
-1.654834 0.430682 2.388419 -0.017240 -0.969466 -0.148898
-1.698628 0.275900 1.953543 0.041691 -0.975995 -0.151922
-1.378704 -0.986445 2.423104 0.248485 -0.879385 -0.137765
-1.224935 -0.555375 1.527007 0.225833 -0.833432 -0.134632
-1.463374 0.515668 -0.384520 0.106605 -0.884135 -0.143018
-1.577756 0.086906 -0.447282 0.201209 -0.885903 -0.144227
-1.186235 -0.576917 0.049463 0.327694 -0.788687 -0.128593
-1.337618 -0.029342 -1.551331 0.253129 -0.819272 -0.126218
-1.471151 0.850966 -2.009349 0.167538 -0.833879 -0.121800
-1.500838 -0.164564 -2.159822 0.308735 -0.814180 -0.113061
-0.860002 -0.497035 -1.503309 0.377302 -0.700829 -0.100653
-1.269020 -0.021723 -2.722787 0.315207 -0.763933 -0.107712
-1.250721 0.537818 -3.209746 0.251232 -0.743702 -0.104257
-0.836299 -0.293268 -2.962598 0.363601 -0.659512 -0.094378
-1.250603 -0.655846 -2.022769 0.440005 -0.714171 -0.094727
-1.202079 -0.021309 -3.167073 0.332818 -0.693861 -0.080940
-1.157704 0.017457 -3.065662 0.329898 -0.688857 -0.081073
-1.132248 -0.420336 -2.718117 0.388907 -0.702713 -0.090434
-1.300179 -0.801318 -2.246176 0.446421 -0.742635 -0.104455
-1.078817 -0.705853 -2.497090 0.403752 -0.684264 -0.097178
-1.046514 -0.593444 -2.258786 0.364352 -0.698033 -0.103638
-1.355514 -0.605838 -2.003113 0.341500 -0.723894 -0.089335
-0.911296 -1.021415 -1.439546 0.347026 -0.622774 -0.055560
-0.694488 -1.635651 -0.623458 0.369098 -0.599280 -0.045908
-1.074544 -0.850711 -1.203542 0.174350 -0.628040 -0.034242
-0.406465 -1.119676 0.204235 0.132339 -0.576522 -0.038131
-0.720346 -1.598435 0.945054 0.093208 -0.592798 -0.029303
-0.517824 -1.853736 3.359673 0.052928 -0.625350 -0.041189
-0.606415 -1.269995 3.394671 -0.160175 -0.600466 -0.021304
-0.325924 -1.312374 5.293097 -0.263012 -0.599562 -0.025567
-0.881100 -1.834065 7.679152 -0.328151 -0.650705 -0.030803
-0.041129 -1.772863 10.443168 -0.470089 -0.444337 -0.012060
-0.225540 -2.429755 11.681567 -0.577682 -0.394215 -0.018770
-0.830773 -2.506886 15.546174 -0.726787 -0.367929 -0.029737
-0.444881 -3.939909 19.610437 -0.785680 -0.172701 -0.017343
-0.596749 -4.520641 21.939690 -0.869554 -0.066445 0.005468
-0.709137 -5.374564 25.656753 -0.902053 -0.093391 -0.004188
-0.445594 -5.428444 27.411057 -1.028304 0.007102 0.018722
-0.023864 -5.992206 29.400384 -0.999923 0.011083 0.001530
-0.436582 -6.397700 31.458370 -0.981770 -0.116443 -0.030549
-0.202388 -6.465544 31.215003 -1.065948 -0.099318 -0.032691
-0.762814 -6.476311 30.763610 -1.136403 -0.242025 -0.056262
-0.849798 -6.825554 30.471354 -1.089923 -0.277117 -0.058042
-0.436404 -7.239082 29.687244 -0.962878 -0.288254 -0.061435
-0.509027 -6.840195 27.553101 -0.922231 -0.354361 -0.062796
0.001883 -6.361619 25.102338 -0.897233 -0.363309 -0.065999
0.002248 -6.299210 23.467180 -0.832334 -0.383714 -0.060002
-0.029793 -6.555755 22.536162 -0.751024 -0.494880 -0.084268
0.141429 -6.360339 21.613722 -0.740850 -0.497465 -0.079622
0.210746 -5.944663 20.897842 -0.740538 -0.582110 -0.096580
0.154265 -5.261276 19.883998 -0.764523 -0.659741 -0.106728
0.064186 -4.758766 19.950878 -0.769135 -0.717682 -0.112498
-0.068537 -4.415492 20.267845 -0.788905 -0.788013 -0.122056
-0.334380 -3.669399 20.779366 -0.906048 -0.847693 -0.130036
-0.109215 -3.760090 21.891612 -0.945327 -0.818761 -0.131884
-0.179149 -4.167676 23.789486 -0.947361 -0.786446 -0.130701
-0.171245 -4.169492 25.697660 -0.975049 -0.721383 -0.125769
-0.366468 -3.942297 26.576530 -1.008966 -0.670209 -0.116701
-0.523550 -3.589300 27.757261 -1.028406 -0.622747 -0.111967
-0.685710 -3.318099 28.712348 -1.039304 -0.603289 -0.115716
-0.952944 -3.483213 29.556242 -1.014773 -0.614668 -0.125649
-1.292785 -3.193829 30.323741 -1.067707 -0.637546 -0.136651
-1.391363 -2.949020 30.122711 -1.103983 -0.681611 -0.150338
-1.529913 -2.948989 29.889743 -1.052287 -0.751732 -0.161471
-1.327585 -2.785782 29.200464 -1.017952 -0.795759 -0.170084
-1.272861 -2.837249 28.504259 -0.966322 -0.842047 -0.175313
-0.941008 -2.868496 27.393856 -0.906178 -0.848787 -0.177103
-1.010953 -2.473066 25.952301 -0.870781 -0.898632 -0.178217
-0.650617 -2.162530 24.091210 -0.808658 -0.878600 -0.171376
-0.782746 -1.886341 22.552841 -0.739142 -0.904416 -0.169917
-0.789190 -2.126064 21.712969 -0.622958 -0.900583 -0.169100
-0.753558 -1.895317 19.829091 -0.618370 -0.848902 -0.159376
-1.130738 -1.489865 18.045714 -0.638976 -0.887472 -0.167299
-1.412619 -1.286446 16.730600 -0.623724 -0.926800 -0.170778
-1.277855 -1.697265 16.423957 -0.493210 -0.922140 -0.167600
-1.254938 -1.751650 15.626134 -0.408718 -0.965155 -0.169608
-1.181563 -0.796861 13.591799 -0.473341 -1.024374 -0.173156
-1.265822 -0.293238 12.214684 -0.479386 -1.094538 -0.177568
-1.073653 -0.634578 11.928365 -0.378239 -1.085997 -0.173150
-1.153798 -1.165205 11.953605 -0.248584 -1.109850 -0.176875
-1.207973 -0.920090 10.821074 -0.259155 -1.082561 -0.167527
-1.308118 -0.054920 8.796758 -0.336387 -1.066931 -0.167608
-1.362180 -0.230937 8.329357 -0.276234 -1.043484 -0.167260
-1.496315 -0.707489 8.253508 -0.147260 -1.040862 -0.174788
-1.616887 -1.036773 7.791719 -0.060176 -1.052280 -0.177727
-1.610322 -0.254424 5.913546 -0.124272 -1.046660 -0.169983
-1.705539 0.386833 4.243181 -0.159814 -1.083326 -0.169004
-1.854441 -0.543028 4.489598 0.017310 -1.116433 -0.170789
-1.641528 -1.095532 4.186910 0.141070 -1.045629 -0.155655
-1.732805 0.182949 2.138897 0.015033 -1.044830 -0.155724
-2.049580 0.153986 0.879280 0.063704 -1.089883 -0.168507
-1.706622 -0.228028 0.939127 0.160858 -0.968372 -0.155436
-1.495287 -0.303940 -0.119957 0.213495 -0.935135 -0.153903
-1.991195 -0.090584 -0.512240 0.225292 -1.021449 -0.165557
-1.523947 0.463826 -2.465514 0.167265 -0.896799 -0.139730
-1.631807 -0.266021 -1.500484 0.322900 -0.970758 -0.167042
-1.576841 -0.253797 -2.393774 0.322282 -0.921652 -0.157924
-1.473709 0.073536 -2.469054 0.311450 -0.944997 -0.176573
-1.717441 0.100176 -2.961494 0.309717 -0.971472 -0.180475
-1.424319 -0.085558 -3.393233 0.318336 -0.923635 -0.174736
-1.738794 -0.330193 -2.440022 0.364626 -0.994583 -0.189179
-1.521894 -0.221349 -3.547477 0.339794 -0.923662 -0.170857
-1.428553 0.133831 -3.010394 0.298098 -0.942862 -0.182706
-1.494044 -0.315219 -3.043962 0.348558 -0.924354 -0.175511
-0.980023 -0.108461 -3.757901 0.316202 -0.817149 -0.156271
-1.294358 -0.051932 -2.490703 0.343911 -0.888630 -0.171056
-1.334662 -0.588926 -3.115670 0.403038 -0.851984 -0.156413
-0.954441 0.256019 -3.308910 0.292438 -0.778124 -0.143420
-1.362565 -0.343239 -3.020046 0.378691 -0.874976 -0.162639
-1.255005 -0.464347 -2.934496 0.393945 -0.813135 -0.146726
-1.080887 0.407958 -3.615638 0.258311 -0.799336 -0.147455
-1.406658 -0.164402 -3.066880 0.342707 -0.878349 -0.163911
-1.301925 -0.129998 -3.029018 0.322857 -0.810771 -0.147842
-1.120961 0.299486 -3.718241 0.263683 -0.802880 -0.150500
-1.567126 -0.152013 -3.118590 0.331095 -0.876525 -0.161170
-1.220040 -0.470548 -2.817874 0.386032 -0.781471 -0.141114
-0.949365 0.136148 -3.546860 0.312855 -0.752615 -0.139934
-1.279337 -0.181352 -2.761749 0.380936 -0.814361 -0.153561
-1.034254 -0.506025 -2.965696 0.405053 -0.748078 -0.141705
-0.965840 0.183873 -3.386543 0.306899 -0.735426 -0.140929
-1.347186 -0.008618 -3.337765 0.317623 -0.836079 -0.158586
-1.417285 -0.391319 -2.992985 0.362018 -0.810141 -0.145451
-0.902189 0.002376 -3.033508 0.307818 -0.734940 -0.133326
-1.384127 0.352500 -3.896499 0.254620 -0.838579 -0.145045
-1.379402 -0.376523 -2.764560 0.372691 -0.827847 -0.139845
-1.022148 -0.535726 -2.716141 0.398052 -0.754827 -0.127321
-1.141798 -0.211705 -3.309541 0.363201 -0.796715 -0.134309
-1.372098 -0.192297 -3.043289 0.374780 -0.818678 -0.132192
-1.120238 -0.581778 -2.750167 0.426806 -0.760642 -0.121007
-1.101705 -0.601966 -2.800021 0.413939 -0.776270 -0.123725
-1.255372 0.263171 -3.632385 0.280956 -0.797444 -0.118167
-1.439711 0.149352 -3.452119 0.300961 -0.838539 -0.121637
-1.310280 -0.592285 -2.699557 0.397993 -0.815481 -0.119204
-1.172326 -0.351065 -2.896299 0.361564 -0.793697 -0.117375
-1.327297 0.547678 -3.865359 0.240689 -0.826969 -0.124382
-1.472796 0.215924 -3.458511 0.299067 -0.845123 -0.128756
-1.310141 -1.015998 -2.053838 0.481461 -0.807017 -0.127406
-1.197435 -0.392491 -2.634144 0.394862 -0.785017 -0.120273
-1.454123 0.699939 -3.914850 0.246416 -0.835302 -0.116388
-1.542712 0.502925 -3.744051 0.265629 -0.840928 -0.107893
-1.271127 -0.276894 -2.476221 0.377781 -0.805894 -0.104974
-1.261395 -0.346335 -2.446728 0.377161 -0.807144 -0.107620
-1.380602 0.602406 -3.536344 0.235862 -0.839223 -0.113996
-1.583803 0.912082 -3.722099 0.184957 -0.866368 -0.118637
-1.335290 0.293185 -3.188445 0.271964 -0.818886 -0.114926
-1.232451 -0.006024 -2.581047 0.326404 -0.816851 -0.120319
-1.423064 0.220597 -2.808432 0.306564 -0.845385 -0.121947
-1.432886 0.578811 -3.294582 0.262067 -0.838194 -0.116473
-1.249102 0.472062 -3.291302 0.272006 -0.819619 -0.114423
-1.330664 0.208456 -2.899395 0.304120 -0.837345 -0.116834
-1.481552 0.336726 -2.945756 0.278338 -0.856655 -0.116829
-1.396275 0.540644 -3.227611 0.234985 -0.843302 -0.114563
-1.393686 0.682741 -3.180661 0.202896 -0.845389 -0.116472
-1.463101 0.494299 -2.861058 0.232589 -0.860913 -0.120645
-1.423579 0.249712 -2.687882 0.272859 -0.851041 -0.119744
-1.322527 0.434057 -2.909012 0.255571 -0.832046 -0.115417
-1.383827 0.718798 -3.316483 0.222438 -0.848305 -0.115573
-1.429052 0.399826 -3.072714 0.272237 -0.856997 -0.116070
-1.311285 0.239791 -2.864529 0.292310 -0.838715 -0.114110
-1.292086 0.517628 -3.122020 0.249240 -0.840503 -0.114805
-1.417384 0.671624 -3.331548 0.225034 -0.870325 -0.120043
-1.394691 0.516581 -3.133542 0.243887 -0.863319 -0.119216
-1.369391 0.265637 -2.850579 0.278344 -0.872451 -0.123804
-1.422958 0.309890 -3.096880 0.271284 -0.876480 -0.122752
-1.398601 0.621030 -3.411405 0.231794 -0.872993 -0.121613
-1.415719 0.332467 -3.191742 0.276849 -0.873711 -0.123107
-1.352070 0.147921 -3.084902 0.304956 -0.864758 -0.123530
-1.317482 0.156266 -3.059218 0.307474 -0.871130 -0.126859
-1.398662 0.101981 -3.056624 0.316202 -0.875444 -0.126900
-1.392238 0.012934 -3.058674 0.324035 -0.874784 -0.126919
-1.367317 0.265752 -3.345808 0.288709 -0.867244 -0.124994
-1.374860 0.138308 -3.355914 0.305149 -0.871775 -0.126565
-1.360849 0.271512 -3.418634 0.292924 -0.865024 -0.125393
-1.350432 0.096825 -3.180915 0.323638 -0.874279 -0.130078
-1.403303 -0.143865 -2.823037 0.364254 -0.877737 -0.133057
-1.319384 0.021400 -3.203984 0.340291 -0.868789 -0.133516
-1.446152 0.221908 -3.368906 0.317558 -0.897832 -0.140501
-1.422196 0.119287 -3.355031 0.333714 -0.883851 -0.138220
-1.323481 0.053081 -3.135673 0.346219 -0.868289 -0.139025
-1.358853 -0.239711 -2.654832 0.386070 -0.880870 -0.144659
-1.384407 -0.043046 -3.223129 0.342922 -0.874163 -0.140099
-1.371407 0.365531 -3.376477 0.289704 -0.877195 -0.142253
-1.427151 0.169567 -3.608304 0.310849 -0.891384 -0.145001
-1.380821 -0.087945 -2.924814 0.353148 -0.881730 -0.147189
-1.306351 -0.195554 -2.715550 0.382197 -0.874143 -0.149717
-1.377756 -0.104952 -3.142890 0.369820 -0.870249 -0.147358
-1.408070 0.320265 -3.474479 0.315553 -0.876401 -0.149006
-1.400787 0.172390 -3.489302 0.335411 -0.864710 -0.146717
-1.362785 -0.235040 -2.845867 0.396093 -0.862083 -0.149520
-1.379141 -0.492823 -2.563060 0.424896 -0.857249 -0.149213
-1.335649 0.088146 -3.238686 0.342056 -0.839581 -0.143083
-1.367664 0.455823 -3.749634 0.281842 -0.846476 -0.142887
-1.392004 0.213245 -3.437243 0.315043 -0.847324 -0.143380
-1.388165 -0.617847 -2.317925 0.435672 -0.854938 -0.150078
-1.349608 -0.328385 -2.820755 0.390606 -0.835178 -0.143946
-1.328049 0.443100 -3.631324 0.280674 -0.835980 -0.144091
-1.385454 0.585419 -3.743890 0.258650 -0.847392 -0.145218
-1.342140 -0.486061 -2.482446 0.409829 -0.849805 -0.150348
-1.365383 -0.910900 -2.158405 0.461279 -0.845093 -0.147608
-1.401814 0.264015 -3.312797 0.294282 -0.850030 -0.145439
-1.505123 0.858124 -4.229966 0.206349 -0.872611 -0.147250
-1.420490 -0.294095 -2.794371 0.371371 -0.858839 -0.150205
-1.373096 -1.079149 -1.919494 0.477154 -0.847568 -0.151790
-1.295717 -0.006815 -3.198124 0.325306 -0.831252 -0.148404
-1.435864 0.861687 -4.167454 0.206212 -0.861007 -0.153676
-1.513171 -0.109309 -3.053743 0.350813 -0.867884 -0.158060
-1.363060 -1.242003 -1.832151 0.514998 -0.840104 -0.156128
-1.238708 -0.408232 -2.659707 0.399655 -0.816204 -0.150199
-1.458435 0.875975 -4.226469 0.209013 -0.858405 -0.153381
-1.543203 0.201645 -3.455442 0.307987 -0.867329 -0.156142
-1.287862 -1.014269 -1.986533 0.477710 -0.820638 -0.153888
-1.256979 -0.548108 -2.634028 0.404606 -0.806599 -0.149767
-1.520099 0.658469 -3.883975 0.237835 -0.857646 -0.155334
-1.590034 0.588560 -3.851911 0.249883 -0.855362 -0.152091
-1.282596 -0.552803 -2.514828 0.417065 -0.804082 -0.148601
-1.269894 -0.884708 -2.016092 0.473532 -0.801707 -0.149659
-1.371635 0.279598 -3.266304 0.316306 -0.812916 -0.145888
-1.472976 0.735568 -3.690711 0.252085 -0.821739 -0.143239
-1.340368 -0.007103 -2.903451 0.353807 -0.797092 -0.140599
-1.235956 -0.347627 -2.357863 0.400016 -0.779912 -0.140404
-1.297968 0.336011 -2.934251 0.286711 -0.795195 -0.141983
-1.519707 0.617390 -3.040204 0.214529 -0.822112 -0.142743
-1.271537 0.200625 -2.364760 0.248995 -0.778661 -0.136457
-1.190001 -0.043481 -2.107142 0.260938 -0.766199 -0.133293
-1.405773 0.365301 -2.305251 0.177734 -0.803484 -0.134412
-1.212049 0.238054 -2.361475 0.122801 -0.754807 -0.120082
-1.086442 0.067696 -1.768283 0.109359 -0.729414 -0.118880
-1.271864 0.324606 -1.685748 0.029133 -0.749112 -0.125602
-1.141631 0.528187 -1.481681 -0.041632 -0.705646 -0.122634
-1.093428 0.489206 -1.297661 -0.078268 -0.678991 -0.122464
-1.117853 0.342839 -0.653002 -0.088482 -0.669935 -0.125326
-1.111812 -0.006342 -0.520249 -0.096659 -0.650776 -0.125395
-1.108742 0.684443 -0.660321 -0.243720 -0.619230 -0.121558
-1.259272 0.222662 -0.766326 -0.211151 -0.643926 -0.124347
-1.053802 -0.078540 0.172666 -0.180337 -0.585945 -0.118365
-0.704932 0.421723 -1.064585 -0.256844 -0.479640 -0.100444
-1.075231 0.377625 -0.096066 -0.235236 -0.536158 -0.116092
-1.027920 0.248949 -1.105483 -0.238276 -0.444180 -0.096376
-0.626858 -0.243217 0.158326 -0.138688 -0.347459 -0.094916
-1.041208 -0.008862 -0.344761 -0.203354 -0.355579 -0.096188
-0.824696 0.217922 -0.233978 -0.235102 -0.285136 -0.092648
-0.900967 0.188375 -0.220863 -0.237870 -0.220455 -0.076634
-0.738620 -0.146110 0.198364 -0.229218 -0.183924 -0.070733
-0.891836 -0.452334 0.410463 -0.192488 -0.158721 -0.054619
-0.425780 -0.266420 0.369456 -0.234587 -0.069206 -0.037862
-0.847210 -0.828058 0.576877 -0.171430 -0.130543 -0.043951
-0.758734 -0.820113 0.876545 -0.139341 -0.047155 -0.025882
-0.242074 -0.328519 0.216332 -0.217252 0.047840 -0.017023
-0.861120 0.548562 -0.619834 -0.311058 0.004868 -0.006121
-0.407157 0.384916 -0.926766 -0.314334 0.073789 0.008032
-0.361734 -0.128749 0.041054 -0.237910 0.082351 0.016787
-0.717538 -0.520335 0.207174 -0.191561 0.042989 0.026953
-0.499541 -0.048444 0.380071 -0.266293 0.043099 0.027960
-0.409588 -0.017595 0.300866 -0.307530 0.095105 0.048484
-0.492278 -0.461955 0.671208 -0.256382 0.062450 0.041225
-0.351421 -0.348458 0.501395 -0.347188 0.167926 0.072970
-0.283361 -0.552745 2.365202 -0.413085 0.104237 0.051802
-0.878006 -1.765085 5.979377 -0.375325 0.034864 0.053618
-0.819988 -2.798449 9.134099 -0.453375 0.066697 0.067409
-0.468830 -3.084363 13.542380 -0.609675 0.109261 0.083199
-0.882615 -2.559197 17.317194 -0.890231 -0.019964 0.073262
-0.382582 -3.179741 22.906585 -1.032696 0.107059 0.103119
-0.481857 -4.172739 27.907403 -1.116302 0.045430 0.077624
-0.909919 -5.556359 33.026155 -1.222083 0.034194 0.066450
-1.391570 -6.896535 37.094966 -1.315835 0.062047 0.058267
-0.953142 -8.835228 38.191262 -1.297284 0.132523 0.043230
-1.088546 -9.745901 38.545756 -1.253454 0.114910 0.033999
-0.064719 -9.781040 34.211030 -1.221452 0.096385 0.022327
-0.150547 -9.419890 31.951951 -1.176804 -0.091456 -0.006965
0.201237 -9.307681 27.354620 -1.087786 -0.214658 -0.014208
-0.220036 -7.953989 22.752074 -1.194001 -0.409638 -0.026741
-0.210982 -7.704070 19.611173 -1.076895 -0.560864 -0.053122
-0.527505 -7.933504 17.221683 -0.884152 -0.651897 -0.054281
-0.108735 -6.917725 13.752407 -0.794528 -0.682075 -0.059230
-0.700717 -6.098364 10.965188 -0.640766 -0.849204 -0.073291
-0.351676 -5.112428 8.008504 -0.491825 -0.851402 -0.079712
-0.726384 -4.175694 6.571067 -0.366524 -0.953585 -0.102451
-0.676436 -4.058341 4.343945 -0.192287 -0.972313 -0.109892
-0.456547 -2.344391 2.737123 -0.251378 -0.896755 -0.093845
-0.312263 -1.906242 1.145857 -0.195037 -0.891842 -0.097350
-0.610590 -2.007580 1.334381 -0.100666 -0.907788 -0.101151
-0.464457 -2.144231 1.522107 -0.021539 -0.852951 -0.095871
-1.020973 -1.409539 0.438494 -0.079081 -0.923594 -0.104318
-1.259474 -1.174168 0.182256 -0.072173 -0.946674 -0.110662
-1.491997 -1.371350 0.453787 -0.023974 -0.960543 -0.117119
-1.233640 -1.574418 1.074146 0.025658 -0.950882 -0.125931
-1.336465 -0.914942 1.379687 -0.060327 -0.945930 -0.120874
-1.325800 -0.890197 1.228962 -0.100804 -0.955057 -0.117165
-1.403092 -1.138615 2.233153 -0.121350 -0.971721 -0.117041
-1.060021 -1.032495 3.309593 -0.220226 -0.878165 -0.099811
-1.156867 -1.045424 4.061419 -0.313618 -0.872604 -0.103776
-0.958298 -1.163001 5.375484 -0.373609 -0.778416 -0.097512
-1.150451 -1.110293 6.134677 -0.421202 -0.740919 -0.098839
-1.475483 -0.825297 6.339521 -0.488699 -0.749364 -0.108412
-1.647467 -0.775324 6.832789 -0.528333 -0.717579 -0.107823
-1.707989 -0.935531 7.232764 -0.549924 -0.698152 -0.108725
-1.826330 -1.213074 7.929973 -0.545504 -0.680402 -0.105435
-1.756311 -1.302722 7.807505 -0.555418 -0.651840 -0.098505
-1.682743 -1.480836 7.718071 -0.514439 -0.647362 -0.094734
-1.388253 -1.497567 7.446063 -0.480770 -0.601172 -0.081344
-1.310714 -1.167647 6.913970 -0.478514 -0.600279 -0.073853
-1.162587 -0.826214 6.243399 -0.466160 -0.588692 -0.062174
-1.053186 -0.634006 5.788364 -0.435167 -0.591268 -0.055410
-0.980577 -0.530828 5.352134 -0.417799 -0.597653 -0.050544
-0.871183 -0.776180 5.330787 -0.373193 -0.589777 -0.044700
-0.829287 -1.101150 5.232271 -0.323130 -0.600660 -0.043295
-0.846347 -1.349223 5.291460 -0.280038 -0.616634 -0.042291
-0.772643 -1.522529 5.549243 -0.250526 -0.625899 -0.043609
-0.791891 -1.484829 5.652859 -0.259732 -0.654093 -0.047460
-0.794038 -1.297974 5.959037 -0.286374 -0.664429 -0.048972
-0.775904 -1.229451 6.272349 -0.304883 -0.662113 -0.047021
-0.827697 -1.216350 6.746115 -0.328012 -0.670536 -0.046244
-0.736875 -1.237395 7.419835 -0.365849 -0.659606 -0.041163
-0.611836 -1.429181 8.215952 -0.411400 -0.628776 -0.032691
-0.582764 -1.933540 9.762545 -0.441049 -0.618849 -0.035713
-0.666184 -1.956635 9.868019 -0.511683 -0.592463 -0.031320
-0.780020 -1.946599 10.895623 -0.591759 -0.575864 -0.037588
-0.920454 -2.636437 12.692856 -0.565977 -0.565231 -0.047195
-0.877503 -3.310854 14.296884 -0.554445 -0.495278 -0.039425
-0.763583 -2.436091 14.348516 -0.764433 -0.442439 -0.032953
-1.027399 -2.455784 15.963354 -0.838890 -0.473706 -0.038889
-0.806608 -3.554172 18.421835 -0.790524 -0.397685 -0.024483
-0.455334 -3.639845 20.234046 -0.876010 -0.347982 -0.022491
-0.817683 -4.068625 22.593515 -0.904238 -0.438403 -0.039276
-0.559108 -4.015990 23.954891 -1.016518 -0.351856 -0.018943
-0.300601 -4.760280 26.707794 -0.993668 -0.351556 -0.029525
-0.571251 -5.338230 29.198693 -0.981032 -0.374287 -0.033058
-0.407900 -4.810665 30.804177 -1.121114 -0.344693 -0.035379
-0.905028 -5.090355 32.543565 -1.151317 -0.458142 -0.059966
-0.901659 -5.854325 34.642871 -1.123080 -0.449447 -0.062204
-0.879210 -5.750975 36.258389 -1.195814 -0.474206 -0.073323
-1.196999 -5.915500 37.264411 -1.213278 -0.584301 -0.092372
-0.988168 -6.159307 38.093974 -1.182260 -0.600622 -0.098614
-0.612750 -6.233775 38.746234 -1.162744 -0.615498 -0.109357
-0.733442 -6.419064 38.926601 -1.131601 -0.718378 -0.127560
-0.261965 -6.338087 38.920266 -1.135819 -0.726231 -0.133865
-0.013543 -6.350737 38.826180 -1.129987 -0.734344 -0.136092
0.009361 -6.544061 39.122938 -1.091870 -0.819132 -0.157223
-0.100109 -6.275750 39.237883 -1.122088 -0.857247 -0.161375
-0.042409 -6.122276 39.246718 -1.125147 -0.878855 -0.166141
-0.200836 -5.864080 39.563711 -1.136486 -0.948389 -0.180473
-0.318160 -5.733544 40.042230 -1.149004 -0.954781 -0.177103
-0.104519 -5.752254 40.911906 -1.151028 -0.962999 -0.186087
-0.295668 -5.771837 41.820620 -1.153940 -0.998083 -0.187098
-0.151299 -5.784356 43.073593 -1.150498 -1.027004 -0.195906
-0.236243 -5.739607 44.391458 -1.132084 -1.035320 -0.191842
0.089305 -5.926417 45.929888 -1.081265 -1.019698 -0.196445
-0.016105 -5.723531 47.397574 -1.078431 -1.008670 -0.195091
-0.529011 -5.195056 48.246528 -1.122519 -1.103302 -0.214711
-0.152118 -5.207882 48.849321 -1.117512 -1.012897 -0.200421
-0.374478 -5.497604 50.509995 -1.051498 -1.050172 -0.205624
-0.119196 -5.368469 50.808142 -1.050388 -1.041318 -0.201047
-0.329987 -4.637024 50.555810 -1.102572 -1.129201 -0.208876
-0.303909 -4.441255 49.706191 -1.072174 -1.167199 -0.203543
0.157695 -4.371603 49.014817 -1.038579 -1.128864 -0.197565
0.859266 -4.585626 47.685463 -0.993663 -1.103369 -0.196518
-0.102844 -4.494468 46.276986 -0.955809 -1.325218 -0.224019
0.904029 -4.246515 43.946073 -0.905592 -1.182005 -0.203314
0.749613 -3.435897 41.170109 -0.864517 -1.221735 -0.209098
0.206337 -2.796093 38.634278 -0.819757 -1.334637 -0.226870
0.413271 -2.568150 36.373944 -0.755395 -1.252518 -0.221349
0.216627 -2.864739 33.914066 -0.668345 -1.240924 -0.235266
-0.375036 -2.292941 31.475779 -0.719429 -1.279535 -0.243509
