fx fy fz tx ty tz 
-1.782188 0.122810 0.553535 0.037145 -0.834930 -0.116071
-1.794652 0.101150 0.509934 0.039288 -0.838086 -0.116471
-1.777033 0.248692 0.480335 0.017433 -0.831567 -0.115783
-1.760344 0.243939 0.593875 0.012338 -0.809267 -0.119349
-1.776964 0.117266 0.854801 0.022362 -0.777432 -0.124198
-1.786409 0.009696 0.997542 0.029010 -0.747709 -0.126889
-1.784736 0.127157 0.799112 -0.000522 -0.715937 -0.127483
-1.775569 0.215575 0.799494 -0.023634 -0.689895 -0.129644
-1.788221 0.019845 1.008662 -0.010030 -0.668191 -0.130581
-1.736682 -0.009077 1.070746 -0.019666 -0.635792 -0.127428
-1.686285 0.115623 1.112553 -0.046584 -0.617500 -0.126706
-1.713481 0.180840 1.112447 -0.071374 -0.604505 -0.124258
-1.680522 0.073684 1.300227 -0.065769 -0.594273 -0.125664
-1.675678 0.141017 1.469589 -0.083614 -0.588883 -0.130823
-1.683431 0.237978 1.444729 -0.112727 -0.594255 -0.135755
-1.688255 0.257883 1.479900 -0.125314 -0.598556 -0.139088
-1.694273 0.312548 1.538463 -0.145990 -0.602838 -0.140700
-1.712055 0.277842 1.540013 -0.158996 -0.607599 -0.138105
-1.716458 0.342384 1.489005 -0.177942 -0.607968 -0.132878
-1.707945 0.317433 1.645821 -0.183327 -0.603427 -0.128616
-1.682722 0.275699 1.777567 -0.189384 -0.596885 -0.124398
-1.640276 0.246033 1.952694 -0.192668 -0.584527 -0.121017
-1.627503 0.306779 1.832425 -0.213884 -0.574167 -0.117234
-1.652418 0.342255 1.904756 -0.227057 -0.574808 -0.117762
-1.652784 0.292850 2.084576 -0.230410 -0.561258 -0.116944
-1.654971 0.307499 2.046965 -0.236938 -0.560049 -0.117246
-1.647715 0.418699 1.933557 -0.262137 -0.554360 -0.117259
-1.640541 0.457514 1.941386 -0.276087 -0.543532 -0.116638
-1.643221 0.364651 2.064791 -0.266554 -0.542042 -0.117243
-1.639159 0.283458 2.175105 -0.259746 -0.532399 -0.115830
-1.626745 0.315761 2.151789 -0.264040 -0.524676 -0.115086
-1.638189 0.326644 2.042329 -0.267552 -0.518858 -0.114737
-1.641077 0.295603 2.122302 -0.259285 -0.514902 -0.116813
-1.619858 0.235131 2.194479 -0.249187 -0.508399 -0.118165
-1.614139 0.217123 2.218452 -0.245467 -0.507794 -0.119688
-1.619668 0.261840 2.175885 -0.252452 -0.508639 -0.119727
-1.654750 0.292535 2.143026 -0.260572 -0.512616 -0.119171
-1.671457 0.233283 2.137260 -0.254606 -0.515760 -0.118799
-1.649525 0.189711 2.147398 -0.249431 -0.513149 -0.118684
-1.646272 0.087711 2.185870 -0.235881 -0.513391 -0.119795
-1.639713 0.013774 2.209273 -0.225320 -0.512028 -0.120567
-1.641470 -0.068524 2.236492 -0.215063 -0.510633 -0.121565
-1.639159 -0.096209 2.209972 -0.211819 -0.506904 -0.121525
-1.656496 -0.124645 2.200443 -0.208175 -0.506596 -0.121740
-1.676440 -0.129091 2.165607 -0.207251 -0.505679 -0.121660
-1.672688 -0.115766 2.181900 -0.208064 -0.502263 -0.121540
-1.667011 -0.128257 2.203154 -0.206811 -0.500297 -0.122339
-1.653395 -0.075932 2.137078 -0.216257 -0.495318 -0.121357
-1.654976 -0.049254 2.118256 -0.220692 -0.495324 -0.121246
-1.661821 -0.064067 2.115400 -0.218577 -0.494319 -0.120806
-1.660950 -0.137605 2.164034 -0.207155 -0.494126 -0.121281
-1.649615 -0.153941 2.133300 -0.203240 -0.493107 -0.121804
-1.636992 -0.182246 2.107591 -0.196434 -0.490437 -0.121620
-1.630782 -0.211675 2.092427 -0.188756 -0.490640 -0.122361
-1.624746 -0.206984 2.096418 -0.185120 -0.490185 -0.122748
-1.646778 -0.253692 2.105530 -0.173485 -0.494488 -0.123472
-1.669856 -0.219245 2.050137 -0.172527 -0.496683 -0.123206
-1.683471 -0.209203 1.999380 -0.167206 -0.498692 -0.123146
-1.687956 -0.181662 1.960344 -0.163234 -0.500793 -0.123952
-1.682158 -0.205994 1.939480 -0.151398 -0.501387 -0.124474
-1.669690 -0.192736 1.913596 -0.145013 -0.497920 -0.124164
-1.672560 -0.195659 1.890623 -0.136694 -0.499520 -0.124457
-1.665697 -0.201703 1.849421 -0.128776 -0.496625 -0.123846
-1.661815 -0.213897 1.822284 -0.120800 -0.495735 -0.123849
-1.659596 -0.222847 1.817079 -0.113699 -0.495035 -0.123963
-1.650398 -0.201216 1.768143 -0.112706 -0.493083 -0.123849
-1.647704 -0.194114 1.751351 -0.109631 -0.494324 -0.124450
-1.647393 -0.155120 1.732297 -0.111560 -0.493940 -0.124407
-1.674581 -0.169315 1.716772 -0.106228 -0.500533 -0.125241
-1.687814 -0.117105 1.663457 -0.111181 -0.501353 -0.124863
-1.691869 -0.080594 1.627209 -0.114959 -0.501489 -0.124279
-1.686569 -0.073633 1.620894 -0.114576 -0.500322 -0.123750
-1.662724 -0.038085 1.587389 -0.118400 -0.495227 -0.122126
-1.656113 0.001901 1.534708 -0.123245 -0.495960 -0.121928
-1.647119 0.084582 1.449416 -0.133913 -0.493720 -0.120468
-1.650856 0.084431 1.462519 -0.132383 -0.495262 -0.120500
-1.649143 0.129079 1.456089 -0.137055 -0.495673 -0.120306
-1.643092 0.152068 1.492204 -0.138214 -0.497072 -0.121037
-1.641757 0.182950 1.519502 -0.142009 -0.498246 -0.121568
-1.654090 0.178170 1.516800 -0.142122 -0.501538 -0.122152
-1.644269 0.274415 1.487960 -0.152944 -0.499588 -0.121807
-1.668627 0.255887 1.492186 -0.148828 -0.506799 -0.123816
-1.692131 0.109032 1.720924 -0.127473 -0.507836 -0.124208
-1.657291 0.166460 1.736464 -0.140508 -0.504158 -0.124496
-1.668570 0.086348 1.734114 -0.137024 -0.506994 -0.125393
-1.648349 0.116106 1.854364 -0.151796 -0.500024 -0.124687
-1.625553 0.160850 1.947380 -0.172840 -0.495800 -0.123267
-1.643737 0.157435 2.029443 -0.204000 -0.495608 -0.120954
-1.636787 0.137610 2.115529 -0.239473 -0.488957 -0.117422
-1.613026 0.171422 2.068203 -0.274159 -0.478213 -0.115102
-1.586987 0.278591 2.099023 -0.299175 -0.466439 -0.114888
-1.588178 0.080812 2.580725 -0.261104 -0.460223 -0.118129
-1.578161 0.141919 2.506944 -0.260898 -0.436951 -0.115814
-1.601540 0.020388 2.793086 -0.245515 -0.432810 -0.117954
-1.725866 0.176841 2.660380 -0.269759 -0.422365 -0.112986
-1.413972 0.566176 2.249271 -0.337525 -0.346762 -0.098639
-1.405505 0.351324 2.208325 -0.324243 -0.334547 -0.095724
-1.385539 -0.128686 3.344481 -0.262254 -0.299829 -0.088917
-1.246827 0.141019 2.225085 -0.323526 -0.242402 -0.072572
-1.274715 0.624654 2.575705 -0.375375 -0.246892 -0.075867
-1.273901 0.039429 2.316392 -0.285392 -0.193875 -0.061517
-1.037063 0.174041 3.453013 -0.282332 -0.151795 -0.060944
-1.237974 -0.072387 2.301487 -0.259459 -0.164353 -0.056228
-1.017553 0.218952 3.214779 -0.262837 -0.110467 -0.047214
-1.091267 0.283765 2.476938 -0.302141 -0.120320 -0.042037
-1.113128 -0.205263 2.699271 -0.240234 -0.103443 -0.032086
-1.123303 0.011233 2.831597 -0.285126 -0.118599 -0.031044
-1.107257 0.186087 2.133738 -0.328527 -0.101422 -0.020881
-1.034939 0.005257 2.076548 -0.300720 -0.081869 -0.012635
-0.971516 0.105639 2.512906 -0.313539 -0.051666 -0.006869
-0.859113 0.418071 2.845189 -0.335432 -0.022699 -0.002880
-0.931366 0.495336 2.250281 -0.352929 -0.026393 -0.003532
-0.968521 0.363657 3.087042 -0.287961 -0.037677 -0.017064
-0.938882 -0.186083 3.545468 -0.211572 -0.027485 -0.022077
-0.984593 -0.302793 3.059196 -0.230691 -0.017784 -0.023756
-1.036610 0.327931 2.360285 -0.337996 -0.044452 -0.031095
-1.107743 0.570779 1.582907 -0.400467 -0.038762 -0.030757
-1.044633 0.491687 1.545260 -0.401560 -0.032804 -0.032418
-1.130572 0.260578 2.529465 -0.360244 -0.073866 -0.047345
-1.052187 -0.094025 2.537028 -0.313748 -0.041757 -0.037591
-0.792591 0.323863 2.806759 -0.356445 -0.014342 -0.032543
-0.885913 0.319532 5.160961 -0.339094 -0.033718 -0.022091
-0.935158 -0.106138 8.795537 -0.247695 -0.071827 -0.016077
-1.016908 0.468024 12.295410 -0.287408 0.016270 0.010503
-1.480004 1.455531 17.283169 -0.471107 0.072789 0.016028
-2.058201 0.540812 22.219824 -0.443051 0.118370 0.014452
-2.440623 -0.828066 28.908003 -0.392542 0.193445 0.006096
-2.903229 -1.484140 32.610647 -0.415577 0.252575 0.012517
-2.322714 -2.047938 34.052832 -0.502825 0.327100 0.009516
-2.333259 -3.028153 34.505223 -0.530107 0.330027 0.014341
-1.530737 -4.533248 35.358032 -0.392787 0.293267 -0.005450
-0.988246 -5.041696 33.078751 -0.377499 0.279116 -0.000622
-0.639188 -4.672964 30.095277 -0.478068 0.197083 -0.019420
-0.951497 -5.855576 27.646754 -0.397041 0.098432 -0.034686
-0.696563 -6.584481 25.058318 -0.417723 0.083338 -0.041236
-0.927697 -6.789024 22.586613 -0.488810 -0.041971 -0.060970
-0.962125 -7.094352 20.706360 -0.527532 -0.143230 -0.075257
-0.445966 -7.778505 20.296896 -0.476514 -0.144893 -0.079776
-0.362133 -7.994409 19.444757 -0.480586 -0.206092 -0.085194
-0.309843 -7.655992 18.939309 -0.576892 -0.266953 -0.094247
-0.191564 -7.144612 18.935664 -0.683305 -0.228157 -0.085094
0.086499 -6.945266 19.510272 -0.726308 -0.160122 -0.081351
-0.120150 -7.175817 21.246769 -0.703648 -0.114567 -0.076600
-0.203496 -6.879307 22.183247 -0.801049 -0.053464 -0.075274
-0.641210 -6.405929 22.872637 -0.972125 -0.044117 -0.077076
-1.011615 -6.616151 24.105667 -1.026237 -0.086102 -0.089276
-1.079977 -6.423599 25.444490 -1.063326 -0.118640 -0.095510
-1.186111 -6.152783 26.213293 -1.040139 -0.218083 -0.111555
-1.327311 -5.034059 26.197870 -1.114224 -0.282111 -0.115874
-1.496964 -4.276213 25.594675 -1.160026 -0.343961 -0.125577
-1.698202 -4.027215 25.309700 -1.158555 -0.365851 -0.127661
-1.703798 -4.007816 25.171327 -1.117291 -0.382172 -0.130848
-1.717728 -3.781097 24.555291 -1.076112 -0.398533 -0.125456
-1.359214 -2.779352 23.201713 -1.110827 -0.375781 -0.115261
-1.253882 -1.980945 21.952326 -1.101470 -0.408476 -0.112256
-1.038260 -1.746085 21.536075 -1.034202 -0.392826 -0.106234
-0.679445 -1.565595 21.530053 -0.985450 -0.351179 -0.102857
-0.794862 -1.318166 21.653153 -0.964220 -0.380772 -0.105549
-0.742265 -0.843470 21.581936 -0.967450 -0.407318 -0.107090
-0.867402 -0.413557 21.885910 -0.951515 -0.440199 -0.112793
-1.071373 -0.319875 23.226801 -0.884055 -0.460692 -0.116426
-1.329475 -0.352712 24.751513 -0.826590 -0.453012 -0.114885
-1.437207 -0.222382 25.529506 -0.830271 -0.429341 -0.110317
-1.398102 -0.079760 26.404652 -0.822904 -0.397161 -0.105627
-1.299438 -0.083689 27.443917 -0.786550 -0.378191 -0.100126
-1.128534 -0.165165 28.409660 -0.734705 -0.361884 -0.096984
-1.049280 0.139950 28.802802 -0.749969 -0.350221 -0.096933
-1.104669 0.184166 28.997277 -0.737376 -0.354531 -0.102233
-1.035283 0.019679 29.176246 -0.699019 -0.326664 -0.104986
-1.142131 -0.405053 29.209310 -0.630148 -0.332725 -0.110591
-1.206650 -0.481836 29.082587 -0.616119 -0.367177 -0.119844
-1.285908 -0.673235 28.593374 -0.600383 -0.411626 -0.122002
-1.283548 -0.960492 28.460830 -0.567387 -0.486613 -0.132465
-1.224494 -1.226390 28.310459 -0.516876 -0.541128 -0.135577
-1.005192 -1.184122 27.987265 -0.483645 -0.577338 -0.141572
-0.883777 -1.213973 27.508398 -0.433333 -0.603015 -0.146213
-0.809388 -1.211263 27.151746 -0.405975 -0.594121 -0.150646
-0.912594 -1.325247 26.743376 -0.393553 -0.582554 -0.156329
-1.061925 -1.600614 26.447347 -0.373909 -0.562800 -0.158369
-1.111999 -1.626494 26.196219 -0.374585 -0.551202 -0.158991
-1.202005 -1.507507 25.901199 -0.382815 -0.564785 -0.162221
-1.205236 -1.353526 25.777117 -0.395265 -0.576123 -0.165014
-1.186116 -1.392014 25.994475 -0.380874 -0.591706 -0.168601
-1.213682 -1.286728 26.131409 -0.384584 -0.614967 -0.172992
-1.268770 -1.278127 26.372057 -0.373301 -0.644578 -0.179659
-1.320189 -1.372709 26.806428 -0.359249 -0.657966 -0.184327
-1.392667 -1.460326 27.185781 -0.374496 -0.660418 -0.189621
-1.510006 -1.661211 27.671130 -0.398973 -0.659572 -0.195002
-1.659591 -1.847154 28.160736 -0.428640 -0.666376 -0.200065
-1.612010 -1.875057 28.546060 -0.446830 -0.655271 -0.200058
-1.543571 -1.790689 28.738442 -0.466195 -0.648876 -0.199594
-1.459743 -1.738229 29.065137 -0.472006 -0.643219 -0.199119
-1.430663 -1.661141 29.162980 -0.486090 -0.634182 -0.195745
-1.363129 -1.707933 29.329409 -0.489591 -0.616658 -0.192284
-1.415508 -1.743441 29.414333 -0.496261 -0.618675 -0.191079
-1.403598 -1.810962 29.415919 -0.497391 -0.615718 -0.189317
-1.392554 -1.940712 29.391218 -0.490313 -0.620658 -0.189698
-1.369908 -2.066845 29.344218 -0.478792 -0.629578 -0.190420
-1.355882 -2.130057 29.272820 -0.470988 -0.641444 -0.190485
-1.299686 -2.167989 29.174219 -0.465008 -0.650866 -0.189842
-1.258463 -2.180307 29.135056 -0.460264 -0.655996 -0.188426
-1.213077 -2.121749 29.021354 -0.466666 -0.654141 -0.186407
-1.192641 -2.055810 28.894347 -0.474408 -0.646704 -0.183797
-1.165667 -1.983455 28.759740 -0.482810 -0.639684 -0.183148
-1.190862 -1.913816 28.644944 -0.491223 -0.637131 -0.182736
-1.166240 -1.803432 28.359762 -0.502168 -0.628820 -0.181116
-1.193883 -1.751926 28.203972 -0.494668 -0.637466 -0.181836
-1.165118 -1.735207 27.988047 -0.488357 -0.637452 -0.180681
-1.168069 -1.607490 27.638587 -0.492865 -0.649445 -0.181927
-1.224437 -1.555241 27.334347 -0.488477 -0.666636 -0.184021
-1.246699 -1.585445 27.106128 -0.471513 -0.674028 -0.184486
-1.264221 -1.551223 26.776564 -0.466269 -0.681062 -0.184748
-1.315057 -1.478322 26.358399 -0.462982 -0.693156 -0.184369
-1.289326 -1.385321 25.973283 -0.463743 -0.689275 -0.181292
-1.259682 -1.355531 25.688784 -0.456338 -0.689421 -0.179815
-1.246469 -1.295457 25.439002 -0.454827 -0.686578 -0.176362
-1.224952 -1.206758 25.151065 -0.461126 -0.683219 -0.173088
-1.218126 -1.172034 24.982651 -0.461277 -0.678702 -0.169995
-1.196070 -1.139183 24.813657 -0.464195 -0.670150 -0.166575
-1.211168 -1.137914 24.742099 -0.461005 -0.672920 -0.166280
-1.205889 -1.097873 24.632932 -0.465654 -0.667837 -0.163924
-1.217940 -1.139280 24.612837 -0.458984 -0.670168 -0.163466
-1.232246 -1.155507 24.612801 -0.456946 -0.670883 -0.162800
-1.252125 -1.198328 24.592382 -0.451729 -0.675964 -0.162581
-1.264452 -1.174730 24.589766 -0.456935 -0.675568 -0.161175
-1.256017 -1.193492 24.636750 -0.456964 -0.674386 -0.160449
-1.255699 -1.214842 24.777170 -0.454943 -0.674565 -0.160331
-1.232366 -1.199469 24.768896 -0.460172 -0.664438 -0.157507
-1.213147 -1.145634 24.826138 -0.467832 -0.659833 -0.156932
-1.224813 -1.219806 24.994094 -0.456759 -0.658021 -0.156826
-1.178011 -1.324877 25.212671 -0.439260 -0.649595 -0.156688
-1.164777 -1.236518 25.250509 -0.449400 -0.650877 -0.158509
-1.167223 -1.269572 25.360308 -0.441998 -0.657008 -0.160754
-1.149830 -1.329598 25.521396 -0.431028 -0.657385 -0.162122
-1.158171 -1.426059 25.665918 -0.416515 -0.661671 -0.164790
-1.187774 -1.447826 25.630083 -0.417295 -0.665698 -0.166572
-1.223634 -1.489492 25.576080 -0.422239 -0.669233 -0.167752
-1.261108 -1.651856 25.520514 -0.417401 -0.670143 -0.168204
-1.289510 -1.796149 25.447708 -0.421555 -0.663181 -0.167531
-1.357171 -1.881262 25.244141 -0.436603 -0.663909 -0.168399
-1.380043 -1.909354 25.036086 -0.451575 -0.657395 -0.167797
-1.371938 -2.070300 24.992975 -0.422965 -0.657600 -0.168028
-1.335438 -1.916326 24.751477 -0.417652 -0.656179 -0.167078
-1.277143 -1.674170 24.385454 -0.406409 -0.665572 -0.169029
-1.308400 -1.595964 24.148444 -0.395934 -0.672175 -0.169407
-1.261054 -1.648767 23.962760 -0.388139 -0.669255 -0.170076
-1.306487 -1.672770 23.666624 -0.396883 -0.676696 -0.170474
-1.284196 -1.652060 23.360161 -0.408463 -0.680860 -0.170202
-1.264074 -1.639588 23.169244 -0.404454 -0.688858 -0.169281
-1.217800 -1.602171 23.029650 -0.395076 -0.697271 -0.169179
-1.210680 -1.487003 22.885179 -0.399953 -0.699942 -0.166666
-1.198005 -1.432345 22.817142 -0.403117 -0.696865 -0.163544
-1.182171 -1.429682 22.843375 -0.403576 -0.691776 -0.161752
-1.188948 -1.455789 22.881699 -0.401506 -0.690179 -0.160634
-1.214252 -1.442265 22.917135 -0.406281 -0.686719 -0.158652
-1.216840 -1.443908 22.965876 -0.407946 -0.683336 -0.157838
-1.216339 -1.438885 23.087637 -0.406599 -0.681719 -0.157936
-1.206256 -1.450176 23.210705 -0.400976 -0.683802 -0.159408
-1.185995 -1.417535 23.305399 -0.400485 -0.681466 -0.159811
-1.151289 -1.295879 23.270216 -0.414542 -0.676024 -0.160111
-1.204421 -1.386983 23.465754 -0.395750 -0.682855 -0.161524
-1.213858 -1.493491 23.645234 -0.381229 -0.675824 -0.160515
-1.196378 -1.492435 23.711303 -0.388419 -0.666551 -0.159526
-1.254998 -1.482540 23.786341 -0.403506 -0.669633 -0.159779
-1.262819 -1.581318 23.964361 -0.402570 -0.665409 -0.159184
-1.216204 -1.646470 24.223834 -0.403965 -0.651802 -0.157613
-1.218589 -1.697692 24.384710 -0.408628 -0.649846 -0.157655
-1.244077 -1.646126 24.541394 -0.423628 -0.650792 -0.157677
-1.207634 -1.649981 24.722403 -0.431771 -0.643541 -0.156508
-1.192629 -1.657696 24.970309 -0.437418 -0.641929 -0.156525
-1.188240 -1.663814 25.233415 -0.446898 -0.640120 -0.156813
-1.194343 -1.640338 25.477717 -0.459291 -0.636375 -0.156323
-1.184259 -1.638930 25.799170 -0.464802 -0.631252 -0.156185
-1.177401 -1.673734 26.114860 -0.465598 -0.626936 -0.156629
-1.198482 -1.699354 26.526215 -0.469171 -0.624457 -0.157457
-1.196126 -1.739786 26.911546 -0.471216 -0.618778 -0.158021
-1.185981 -1.733439 27.294224 -0.479283 -0.609625 -0.157425
-1.195362 -1.815382 27.743583 -0.478824 -0.603901 -0.157904
-1.201764 -1.846186 28.087976 -0.489307 -0.587405 -0.156595
-1.206977 -1.886422 28.451475 -0.495289 -0.573924 -0.156617
-1.214512 -1.920286 28.795462 -0.497249 -0.565040 -0.157843
-1.225547 -1.937978 29.105910 -0.501726 -0.558781 -0.159403
-1.233902 -1.929623 29.458858 -0.509165 -0.552219 -0.160089
-1.230740 -1.908986 29.594825 -0.525030 -0.545400 -0.159556
-1.245604 -1.950470 29.858449 -0.531173 -0.545340 -0.161291
-1.214708 -2.013935 30.154337 -0.533206 -0.537009 -0.160885
-1.202912 -2.061510 30.340540 -0.533566 -0.535865 -0.161174
-1.229881 -2.075312 30.563990 -0.535926 -0.536864 -0.160830
-1.282647 -2.145245 30.854060 -0.531897 -0.541712 -0.160858
-1.254760 -2.164527 31.107824 -0.538829 -0.538052 -0.160615
-1.260143 -2.153073 31.392878 -0.552392 -0.545689 -0.161966
-1.239389 -2.164980 31.732549 -0.561752 -0.552819 -0.163314
-1.208889 -2.141664 32.028389 -0.576536 -0.557051 -0.164088
-1.217671 -2.127255 32.266637 -0.591508 -0.561985 -0.165152
-1.258622 -2.065393 32.589675 -0.611021 -0.565783 -0.166703
-1.231051 -2.095005 32.918867 -0.618815 -0.561215 -0.167781
-1.226469 -1.996493 33.266259 -0.635702 -0.559948 -0.168290
-1.217475 -2.006022 33.741007 -0.642796 -0.567560 -0.170386
-1.218805 -2.058552 34.332805 -0.651260 -0.574671 -0.170667
-1.221614 -2.102074 35.012785 -0.660745 -0.591382 -0.172816
-1.249106 -2.146190 35.722959 -0.667704 -0.612907 -0.175575
-1.232602 -2.221112 36.508574 -0.673282 -0.627743 -0.179435
-1.274365 -2.278212 37.307501 -0.687087 -0.640665 -0.183731
-1.310476 -2.402353 38.175294 -0.693076 -0.648995 -0.187373
-1.325093 -2.366456 38.725508 -0.719273 -0.657843 -0.189658
-1.305438 -2.292506 39.232879 -0.743860 -0.670286 -0.190728
-1.314652 -2.338410 39.775411 -0.743973 -0.699490 -0.195267
-1.305287 -2.479854 40.333513 -0.732831 -0.713793 -0.198393
-1.260562 -2.552570 40.693809 -0.735338 -0.732382 -0.203596
-1.205291 -2.469011 40.632428 -0.752868 -0.761298 -0.207635
-1.046109 -2.609013 40.724297 -0.733450 -0.782965 -0.208862
-1.048641 -2.861955 40.784246 -0.694308 -0.836293 -0.214835
-0.860211 -3.004593 40.435754 -0.675136 -0.861316 -0.213890
-0.813081 -2.967913 40.088257 -0.672437 -0.906200 -0.217266
-0.717663 -2.985173 39.693386 -0.664196 -0.926930 -0.218901
-0.847077 -3.138288 39.520144 -0.639501 -0.967901 -0.229128
-0.739284 -2.871358 38.823014 -0.679871 -0.944076 -0.231938
-0.959001 -2.673573 38.196887 -0.688497 -0.994154 -0.242960
-0.957117 -2.593079 37.694610 -0.666134 -0.993299 -0.241262
-0.887778 -2.445318 37.081677 -0.636208 -0.979905 -0.237293
-1.055611 -2.074507 35.960178 -0.645414 -1.005436 -0.236815
-1.109854 -1.636488 34.575276 -0.668341 -0.988160 -0.228350
-1.097996 -1.526185 33.615025 -0.639220 -0.979821 -0.227258
-1.153260 -1.614851 32.721848 -0.588820 -0.981317 -0.224319
-1.125146 -1.470600 31.497159 -0.570256 -0.994948 -0.225698
-1.242380 -1.055394 29.948800 -0.582881 -1.022825 -0.228076
-1.269853 -0.842424 28.453387 -0.557694 -1.050419 -0.240661
-1.185832 -0.841095 27.350712 -0.510726 -1.044590 -0.248841
-1.220198 -0.749973 25.982596 -0.485151 -1.062637 -0.260521
-1.381709 -0.358739 24.541527 -0.492241 -1.112163 -0.273375
-1.428977 -0.537212 23.287017 -0.395619 -1.132085 -0.276543
-1.378668 -0.363940 22.209549 -0.387715 -1.123135 -0.272972
-1.642308 0.178332 20.686704 -0.408198 -1.190314 -0.279478
-1.643120 0.264986 19.499451 -0.380431 -1.187307 -0.270137
-1.370809 0.241042 18.592229 -0.335780 -1.144958 -0.259540
-1.568362 0.140719 17.987430 -0.282330 -1.191082 -0.265539
-1.638437 0.122588 16.985721 -0.252833 -1.176032 -0.256987
-1.666102 0.635970 15.415305 -0.286631 -1.173126 -0.251801
-1.893729 0.684755 14.678026 -0.238741 -1.226703 -0.254714
-1.699570 0.576867 14.031611 -0.177935 -1.191156 -0.242156
-1.585531 0.645613 13.177503 -0.154726 -1.168438 -0.233452
-1.827766 0.620843 12.664698 -0.146256 -1.193069 -0.232766
-1.813834 0.530875 12.151317 -0.131704 -1.150700 -0.218098
-1.766842 0.419500 11.820320 -0.108912 -1.121917 -0.210202
-1.792653 0.422595 11.400356 -0.096126 -1.107148 -0.204395
-1.701061 0.581873 10.935261 -0.102815 -1.067944 -0.196081
-1.827548 0.527012 10.774611 -0.080354 -1.063524 -0.195424
-1.722934 0.302200 10.775513 -0.048936 -1.015708 -0.188079
-1.796139 0.279560 10.763054 -0.051694 -0.993184 -0.179263
-1.848669 0.245363 10.685491 -0.056706 -0.986561 -0.171123
-1.693527 0.163275 10.737670 -0.055819 -0.936062 -0.154344
-1.540945 0.060723 10.973539 -0.046258 -0.909351 -0.148681
-1.567067 0.073600 10.996845 -0.054737 -0.901053 -0.145935
-1.506168 -0.092492 11.314264 -0.036367 -0.870835 -0.141303
-1.566378 -0.238456 11.699051 -0.023149 -0.864222 -0.141215
-1.439469 -0.307436 12.027369 -0.030577 -0.817775 -0.132700
-1.327538 -0.348230 12.299697 -0.038770 -0.791302 -0.126891
-1.275617 -0.518315 12.944565 -0.020624 -0.779075 -0.120166
-1.109678 -0.769601 13.860568 0.016151 -0.751707 -0.109798
-1.041166 -0.954667 14.803655 0.026241 -0.728053 -0.098889
-1.021479 -0.947500 15.514613 -0.018478 -0.710275 -0.092093
-1.017058 -0.960358 16.365925 -0.087597 -0.678022 -0.083726
-0.926038 -1.406583 18.020046 -0.103172 -0.651513 -0.080553
-0.896087 -1.765066 19.658707 -0.124357 -0.621310 -0.075543
-0.939218 -1.996839 21.562060 -0.146208 -0.612511 -0.079387
-0.970693 -1.650175 22.356151 -0.248685 -0.565708 -0.075143
-1.067261 -1.426627 23.779222 -0.327192 -0.524259 -0.080131
-1.212654 -2.057520 26.119255 -0.300695 -0.481365 -0.086779
-1.251440 -2.885586 28.603418 -0.278739 -0.409223 -0.089774
-1.152957 -2.611704 29.170952 -0.425898 -0.325861 -0.082924
-1.628812 -2.493895 30.355887 -0.503677 -0.368736 -0.090230
-1.435501 -3.511303 32.648867 -0.413081 -0.334594 -0.089481
-1.120498 -4.033598 34.259636 -0.393068 -0.274892 -0.086475
-1.123119 -3.716461 34.383140 -0.529937 -0.334674 -0.106458
-1.153270 -3.545923 34.753306 -0.638351 -0.363527 -0.111233
-0.933851 -4.587331 36.477604 -0.542844 -0.397181 -0.126084
-0.630999 -5.125669 37.874751 -0.485232 -0.377185 -0.122960
-0.897052 -4.730973 37.990277 -0.538552 -0.486293 -0.138515
-0.894737 -4.242492 37.827235 -0.611433 -0.485194 -0.131846
-0.647075 -4.591431 38.653391 -0.572788 -0.450600 -0.133050
-0.805171 -5.310797 39.780576 -0.490439 -0.481962 -0.147087
-0.929400 -5.122671 39.665413 -0.538823 -0.520289 -0.156829
-0.926606 -4.765408 39.291550 -0.599131 -0.559956 -0.161059
-0.787143 -4.596260 39.058245 -0.616057 -0.617810 -0.168355
-0.748868 -4.633010 39.227071 -0.590003 -0.674540 -0.173252
-0.675948 -4.404526 38.656970 -0.610763 -0.713073 -0.180027
-0.893285 -3.908951 37.840802 -0.662383 -0.774708 -0.189981
-0.941463 -3.719832 37.359453 -0.655203 -0.819493 -0.201684
-0.826136 -3.711960 37.064028 -0.605034 -0.816696 -0.203254
-1.023393 -3.156491 36.381353 -0.625510 -0.874393 -0.214405
-1.055040 -2.601263 35.590958 -0.642410 -0.874066 -0.213667
-1.209053 -2.332237 35.195947 -0.615274 -0.904857 -0.219760
-1.200908 -2.252078 34.757731 -0.597000 -0.900898 -0.220430
-1.260529 -2.048483 34.130697 -0.645063 -0.896246 -0.218100
-1.383086 -1.790962 33.404292 -0.692957 -0.928047 -0.226410
-1.445580 -1.548661 32.876917 -0.697828 -0.951524 -0.234103
-1.415672 -1.386777 32.560014 -0.660777 -0.961066 -0.237698
-1.357778 -0.922268 31.606195 -0.680746 -0.958478 -0.236728
-1.597411 -0.426932 30.447617 -0.721667 -0.999197 -0.241772
-1.584793 -0.365697 29.794131 -0.701924 -0.990743 -0.240492
-1.467860 -0.737218 29.233198 -0.615774 -0.965695 -0.237172
-1.566144 -0.671191 28.165676 -0.604319 -0.983441 -0.242533
-1.657919 -0.361534 26.614120 -0.633775 -0.990105 -0.245285
-1.590597 -0.401025 25.365465 -0.610569 -0.993905 -0.248571
-1.660106 -0.571778 24.415366 -0.531891 -1.020140 -0.250211
-1.522456 -0.216353 23.012014 -0.494364 -1.036637 -0.248501
-1.608449 0.020362 21.636123 -0.419587 -1.100214 -0.251218
-1.433843 0.293267 19.807022 -0.384995 -1.085561 -0.238853
-1.518951 0.504732 17.877772 -0.360770 -1.117674 -0.236573
-1.546286 0.529150 16.436883 -0.316042 -1.135704 -0.229446
-1.430531 0.026496 15.792013 -0.174817 -1.147756 -0.222595
-1.339356 -0.070751 14.008234 -0.112252 -1.137381 -0.211843
-1.424241 0.699795 11.546261 -0.167037 -1.132343 -0.204467
-1.800981 0.542807 10.288664 -0.098053 -1.189820 -0.213138
-1.671906 -0.324368 9.797544 0.071189 -1.131882 -0.202745
-1.580601 0.131683 7.934073 0.041521 -1.083328 -0.189907
-1.862303 0.827347 5.945542 0.002446 -1.153300 -0.199938
-2.125002 0.119513 5.531023 0.139579 -1.161827 -0.191293
-1.644626 -0.111495 4.675872 0.218797 -1.063786 -0.176851
-1.981521 0.635628 2.885969 0.160405 -1.131581 -0.188879
-2.148489 0.312312 2.196680 0.243135 -1.134456 -0.186852
-1.644505 0.169351 1.353805 0.280538 -1.006311 -0.166396
-1.721421 0.591491 0.218693 0.232756 -1.025227 -0.169229
-2.152406 0.075736 0.690155 0.324197 -1.089251 -0.174169
-1.668603 -0.416500 0.635793 0.390472 -0.958758 -0.146415
-1.547193 -0.137589 0.029029 0.356049 -0.939088 -0.143925
-1.685283 0.373611 -0.645434 0.283718 -0.948411 -0.143748
-1.477151 -0.341978 0.070020 0.386049 -0.880811 -0.132478
-1.214863 -0.871821 0.566373 0.457207 -0.829144 -0.127035
-1.484767 0.050322 -0.485958 0.321585 -0.851369 -0.118598
-1.581476 0.336198 -0.738653 0.280235 -0.856189 -0.112848
-1.291933 -0.411526 -0.008576 0.373039 -0.790386 -0.098108
-1.183591 -0.654993 0.618544 0.398115 -0.759550 -0.093640
-1.245979 -0.231869 0.146104 0.311094 -0.760194 -0.093871
-1.151848 0.137635 -0.352217 0.230126 -0.737163 -0.091647
-1.021072 -0.157443 0.361083 0.256137 -0.717607 -0.092404
-1.265246 -0.532695 0.945443 0.296853 -0.742552 -0.090374
-1.062713 -0.225805 0.802701 0.233630 -0.706474 -0.075233
-1.069593 0.143930 0.579967 0.166487 -0.721707 -0.071829
-1.072097 -0.031454 1.027653 0.165318 -0.710880 -0.066985
-1.069795 -0.470677 1.802227 0.201634 -0.694955 -0.069213
-1.249770 -0.488932 2.175509 0.177723 -0.693545 -0.071442
-1.398252 -0.203141 2.142065 0.120412 -0.708837 -0.076772
-1.323732 -0.294734 2.499229 0.127294 -0.697307 -0.074721
-1.238222 -0.660292 3.207535 0.184190 -0.713133 -0.080555
-1.134372 -0.652980 3.632381 0.183069 -0.693783 -0.075505
-1.030940 -0.263436 3.284453 0.117596 -0.671252 -0.071648
-1.201252 -0.363058 3.440853 0.126629 -0.693022 -0.077145
-1.120168 -0.760849 3.637498 0.177827 -0.648539 -0.070515
-1.083545 -0.984059 3.576942 0.219782 -0.633742 -0.070680
-1.304257 -1.106407 3.081478 0.251143 -0.669723 -0.077121
-1.366580 -1.195542 2.553557 0.279149 -0.668909 -0.077577
-1.393874 -1.476326 2.437326 0.338318 -0.668745 -0.079989
-1.355092 -1.776992 2.445487 0.390012 -0.678275 -0.086634
-1.404173 -1.802586 2.267295 0.393573 -0.693700 -0.092233
-1.371381 -1.733087 1.998437 0.390120 -0.701655 -0.095608
-1.225062 -1.915981 2.137333 0.419794 -0.693580 -0.094712
-1.125818 -1.798743 2.489608 0.405485 -0.689191 -0.090497
-0.952674 -1.475272 2.638997 0.354233 -0.694779 -0.085483
-0.738962 -1.111992 3.023689 0.305288 -0.681714 -0.075590
-0.535832 -1.146276 4.172913 0.317506 -0.671215 -0.068415
-0.479598 -1.336697 5.430135 0.313936 -0.675381 -0.062446
-0.700801 -1.438872 6.481586 0.249896 -0.678682 -0.064846
-0.684669 -1.245656 7.480579 0.084444 -0.586733 -0.063330
-1.033072 -1.818904 9.837406 0.047284 -0.566435 -0.076808
-1.130545 -2.732932 12.590518 0.079672 -0.489986 -0.073420
-1.059994 -1.541491 13.532567 -0.140433 -0.427983 -0.070532
-1.439488 -1.099042 15.421285 -0.219131 -0.454793 -0.081019
-1.333420 -1.792830 17.596437 -0.195864 -0.351336 -0.069388
-1.252302 -1.648086 19.533772 -0.331796 -0.263404 -0.071679
-1.530436 -1.953403 21.201458 -0.385682 -0.298873 -0.087270
-1.375763 -2.570559 22.680098 -0.366023 -0.253991 -0.076049
-1.073258 -2.288446 23.768390 -0.424152 -0.239837 -0.079023
-1.354623 -2.739787 24.848154 -0.398393 -0.285527 -0.081224
-1.535924 -3.482017 26.247928 -0.376419 -0.297710 -0.083775
-1.499663 -3.896918 26.564940 -0.393989 -0.262152 -0.082921
-1.400602 -4.008431 26.580205 -0.451507 -0.252570 -0.094992
-1.493262 -4.211810 26.979971 -0.427844 -0.312076 -0.107160
-1.109365 -4.511585 27.343692 -0.344845 -0.313358 -0.106692
-0.929546 -4.385118 27.188938 -0.332126 -0.355362 -0.112489
-0.933354 -4.061239 26.583996 -0.391964 -0.392886 -0.115931
-0.853493 -4.281191 26.395967 -0.393153 -0.392200 -0.115120
-0.627812 -4.629771 26.696474 -0.351530 -0.367785 -0.114443
-0.554669 -4.370340 26.424516 -0.371884 -0.379977 -0.120816
-0.721716 -4.051831 26.053040 -0.392202 -0.436615 -0.133435
-0.743569 -3.785971 25.910997 -0.398159 -0.459082 -0.136998
-0.812711 -3.686179 26.114345 -0.360390 -0.511064 -0.145183
-0.805680 -3.396730 26.105297 -0.349685 -0.534265 -0.145322
-0.808259 -3.057101 25.963306 -0.382066 -0.551661 -0.147217
-0.980100 -2.747431 25.910434 -0.457796 -0.571009 -0.151325
-1.024376 -2.794795 26.226052 -0.504250 -0.563809 -0.152643
-1.167684 -2.712341 26.677813 -0.526382 -0.598178 -0.160527
-1.197548 -2.114658 26.717639 -0.574176 -0.630462 -0.166466
-1.154487 -1.478633 26.718816 -0.628793 -0.635603 -0.170302
-1.238965 -1.497007 27.024259 -0.628798 -0.642888 -0.178266
-1.314055 -1.548709 27.653199 -0.633351 -0.626608 -0.181344
-1.364749 -1.448697 28.109673 -0.637973 -0.618978 -0.181816
-1.427840 -1.281808 28.388452 -0.634474 -0.632011 -0.182646
-1.465485 -1.156515 29.188012 -0.612943 -0.643561 -0.182864
-1.521268 -1.247532 29.982063 -0.595828 -0.657189 -0.183333
-1.541440 -1.270215 30.646833 -0.599990 -0.656448 -0.183972
-1.543205 -1.324365 31.449417 -0.592484 -0.647669 -0.182218
-1.529920 -1.274168 32.302248 -0.576590 -0.634102 -0.179822
-1.561618 -1.211844 33.073415 -0.568253 -0.607690 -0.175731
-1.582699 -1.195587 33.927734 -0.569004 -0.592392 -0.176596
-1.636617 -1.247290 34.667494 -0.579262 -0.582951 -0.173398
-1.426875 -1.378161 35.370781 -0.577477 -0.574109 -0.172036
-1.230795 -1.406130 35.952855 -0.570482 -0.579858 -0.167786
-1.106965 -1.398728 36.344521 -0.559207 -0.611839 -0.171362
-1.105692 -1.541402 36.676220 -0.533202 -0.639810 -0.171809
-1.091720 -1.741753 36.965728 -0.507578 -0.650891 -0.174625
-1.184133 -1.860200 37.030812 -0.497709 -0.673936 -0.179267
-1.108003 -2.019844 36.866749 -0.491389 -0.684898 -0.181422
-0.961263 -2.282719 36.858546 -0.467503 -0.691876 -0.181828
-0.951060 -2.398688 36.671610 -0.464961 -0.729882 -0.184925
-0.893464 -2.458287 36.297490 -0.477150 -0.756540 -0.186162
-0.859107 -2.479543 35.909762 -0.478185 -0.771241 -0.184505
-0.751769 -2.479055 35.714937 -0.448193 -0.773111 -0.185299
-0.745588 -2.100732 34.964747 -0.440345 -0.772348 -0.186498
-0.844440 -1.871089 34.522306 -0.447916 -0.777785 -0.189556
-0.954918 -1.761329 34.079827 -0.446248 -0.772315 -0.190372
-1.175199 -1.873951 33.871116 -0.423348 -0.784862 -0.190265
-1.258961 -1.765670 33.363824 -0.436583 -0.795826 -0.191598
-1.358505 -1.561973 32.639047 -0.467201 -0.811924 -0.193884
-1.268827 -1.407164 32.249432 -0.477472 -0.817037 -0.201833
-1.197918 -1.388421 31.985969 -0.457319 -0.821416 -0.207227
-1.185039 -1.228671 31.648989 -0.456556 -0.848440 -0.216393
-1.128984 -0.891525 31.265509 -0.488177 -0.839930 -0.216424
-1.171751 -0.784416 31.248247 -0.484542 -0.849484 -0.222145
-1.270991 -0.748220 31.438908 -0.463461 -0.844084 -0.225827
-1.290881 -0.432618 31.400536 -0.480715 -0.805030 -0.223013
-1.424689 -0.423473 31.801399 -0.473605 -0.801806 -0.227793
-1.450759 -0.699109 32.565588 -0.476813 -0.778065 -0.229529
-1.450490 -0.923829 33.352878 -0.513258 -0.760976 -0.230044
-1.447863 -0.987655 34.257598 -0.544791 -0.754554 -0.228440
-1.405014 -0.955032 35.270034 -0.549645 -0.748420 -0.225496
-1.326819 -0.985604 36.462860 -0.548387 -0.726377 -0.222119
-1.400951 -1.284720 37.578155 -0.549910 -0.712919 -0.218424
-1.533361 -1.439175 38.436639 -0.588643 -0.687751 -0.209748
-1.669296 -1.566806 39.188732 -0.606864 -0.681164 -0.202495
-1.706963 -1.655954 40.077353 -0.599942 -0.675220 -0.195119
-1.601893 -1.737108 40.671014 -0.601673 -0.664467 -0.190219
-1.525031 -1.812789 41.129801 -0.618421 -0.671143 -0.191174
-1.418164 -1.994602 41.453538 -0.611930 -0.676472 -0.192767
-1.225996 -2.382024 41.637280 -0.576439 -0.663961 -0.191503
-1.135280 -2.705258 41.777216 -0.553671 -0.684725 -0.194417
-1.087314 -3.002889 41.896571 -0.530615 -0.725029 -0.196800
-1.080289 -3.102785 42.139298 -0.523074 -0.753449 -0.201451
-1.097803 -3.028116 42.095941 -0.536678 -0.768175 -0.205641
-1.134180 -2.941348 42.042796 -0.542519 -0.782756 -0.211229
-1.081302 -2.821101 41.731580 -0.544593 -0.796785 -0.215587
-1.089639 -2.657626 41.473499 -0.545058 -0.829424 -0.217651
-0.923250 -2.728076 41.423636 -0.509371 -0.836544 -0.215116
-0.859840 -2.627014 40.982526 -0.506624 -0.841281 -0.211759
-0.936052 -2.369488 40.334553 -0.526907 -0.856467 -0.213063
-1.018998 -2.268276 39.782218 -0.522457 -0.861866 -0.215171
-0.979745 -2.282412 39.255088 -0.497326 -0.851433 -0.213271
-1.050479 -2.101434 38.252426 -0.505387 -0.853660 -0.209302
-1.312936 -1.796754 36.988623 -0.524044 -0.899519 -0.216016
-1.420907 -1.436459 35.581442 -0.534903 -0.916955 -0.215551
-1.196259 -1.220274 34.181934 -0.513190 -0.902023 -0.210051
-1.338355 -1.118631 32.909975 -0.476799 -0.962196 -0.214447
-1.258480 -0.942360 31.437657 -0.455295 -0.981357 -0.221509
-1.006989 -0.765788 29.229735 -0.415964 -0.964564 -0.227764
-1.113817 -0.405745 27.843061 -0.415978 -1.002803 -0.241126
-1.226603 -0.122874 25.967360 -0.397635 -1.017459 -0.249225
-1.261460 -0.212377 24.766067 -0.328463 -1.018477 -0.255917
-1.452215 -0.502373 23.635996 -0.233487 -1.052886 -0.262062
-1.480176 -0.088897 21.672353 -0.255130 -1.057764 -0.256952
-1.590073 0.723518 19.374724 -0.310452 -1.112597 -0.259143
-1.669078 0.874204 18.014952 -0.256733 -1.163857 -0.258833
-1.633139 0.131659 17.318616 -0.084083 -1.180630 -0.254787
-1.608642 0.527316 15.440898 -0.096718 -1.165357 -0.245340
-1.930934 1.571034 12.617853 -0.195539 -1.222002 -0.245159
-1.742015 0.893102 12.270698 -0.033390 -1.215475 -0.239175
-1.605447 0.194817 11.393332 0.116818 -1.184804 -0.223166
-1.561068 0.888521 9.096388 0.049433 -1.176556 -0.215883
-2.069101 1.247256 7.513445 0.041815 -1.234868 -0.221122
-2.003720 0.466746 6.689779 0.174413 -1.158662 -0.205777
-1.833962 0.688860 5.248191 0.174185 -1.102851 -0.202417
-2.324919 0.746514 4.293671 0.204930 -1.176831 -0.215018
-2.362696 0.677622 3.099711 0.234983 -1.141872 -0.201182
-1.947922 0.915790 1.769606 0.219399 -1.059866 -0.184950
-2.204761 0.567780 1.664968 0.287718 -1.131159 -0.197191
-2.117356 0.207504 1.005114 0.325533 -1.065765 -0.176543
-1.621325 0.606162 -0.079099 0.264115 -0.965145 -0.158365
-1.716207 0.722946 -0.346080 0.251794 -0.981488 -0.159333
-1.785925 -0.276186 0.693385 0.389356 -0.944765 -0.144731
-1.239265 -0.371582 0.400675 0.392960 -0.830769 -0.120218
-1.436454 0.291897 -0.564760 0.297748 -0.868154 -0.121568
-1.481765 0.453536 -0.792789 0.276575 -0.850285 -0.111996
-1.128901 -0.336279 0.044025 0.389367 -0.792277 -0.106775
-1.306891 -0.743629 0.591633 0.450815 -0.805806 -0.108916
-1.444701 0.063834 -0.365926 0.331630 -0.819784 -0.107355
-1.456336 0.357586 -0.872474 0.282624 -0.820880 -0.107892
-1.213635 -0.330810 -0.018618 0.371891 -0.764269 -0.097578
-1.326396 -0.699460 0.584173 0.410120 -0.783341 -0.093616
-1.134973 -0.272999 0.030883 0.325886 -0.738573 -0.079719
-1.002745 0.146453 -0.274042 0.246788 -0.724200 -0.078783
-1.214277 -0.242490 0.269937 0.282068 -0.759357 -0.086874
-1.097966 -0.541268 0.767207 0.310731 -0.719450 -0.082949
-1.070176 -0.272892 0.600885 0.263244 -0.724003 -0.089219
-1.190131 0.024105 0.376791 0.208804 -0.734964 -0.090373
-1.158101 -0.161274 0.494409 0.223349 -0.733052 -0.089696
-1.139171 -0.607816 1.057342 0.281502 -0.731476 -0.086966
-1.206836 -0.614809 1.156736 0.265157 -0.734273 -0.078406
-1.085241 -0.353935 0.910192 0.210651 -0.717266 -0.072582
-1.125297 -0.639848 1.305886 0.222080 -0.709252 -0.067022
-1.244373 -0.874425 1.864269 0.245657 -0.716656 -0.066954
-1.239285 -0.760487 1.984918 0.216035 -0.683406 -0.057905
-1.240864 -0.568480 1.856891 0.183825 -0.682952 -0.054418
-1.145900 -0.541029 2.089368 0.186078 -0.683399 -0.052567
-1.127441 -0.653573 2.534545 0.207305 -0.679351 -0.049073
-0.992210 -0.867919 2.760152 0.230119 -0.662640 -0.048471
-1.143893 -0.951999 2.831717 0.222545 -0.669326 -0.050254
-1.294683 -0.906940 2.699886 0.204737 -0.675563 -0.053478
-1.259300 -1.213752 2.710287 0.243929 -0.647740 -0.050607
-1.200198 -1.538362 2.849803 0.304442 -0.633773 -0.049957
-1.254876 -1.503244 2.581982 0.321076 -0.645269 -0.051997
-1.225303 -1.469764 2.085678 0.335133 -0.639091 -0.050643
-1.180605 -1.580423 1.920800 0.366606 -0.628065 -0.050371
-1.260704 -1.670920 1.932811 0.386098 -0.648483 -0.054851
-1.248716 -1.689877 1.762535 0.389965 -0.646298 -0.054236
-1.113918 -1.787335 1.723077 0.409518 -0.633780 -0.054529
-1.174995 -1.852546 1.766039 0.425056 -0.648777 -0.056962
-1.149984 -1.913111 1.865627 0.441160 -0.655451 -0.059067
-1.108992 -1.938227 2.013056 0.449480 -0.654056 -0.058566
-1.126436 -1.787611 2.252499 0.422648 -0.672740 -0.063259
-1.121521 -1.746576 2.536337 0.398159 -0.674294 -0.064368
-1.047342 -1.712971 2.847482 0.375776 -0.665771 -0.066215
-1.100163 -1.748061 3.329907 0.369909 -0.668304 -0.072169
-1.090138 -1.721452 3.747427 0.356695 -0.654411 -0.076688
-1.115479 -1.828064 4.124444 0.346985 -0.650990 -0.083251
-1.157992 -1.837996 4.468150 0.313703 -0.636096 -0.088335
-1.218115 -1.729152 4.588263 0.250376 -0.619309 -0.092844
-1.382481 -1.836311 5.039820 0.209241 -0.618272 -0.100252
-1.430954 -1.983136 5.407098 0.200239 -0.611274 -0.102826
-1.378933 -2.030291 5.554392 0.190597 -0.599485 -0.104154
-1.384647 -1.895380 5.626301 0.171216 -0.609694 -0.107424
-1.396809 -1.871590 5.821394 0.173630 -0.628106 -0.109418
-1.312005 -1.877203 6.010616 0.180075 -0.629788 -0.107023
-1.215874 -1.875686 6.246394 0.185753 -0.635248 -0.104781
-1.186946 -1.737792 6.356588 0.170358 -0.650880 -0.102578
-1.128224 -1.682487 6.483969 0.157761 -0.653688 -0.099860
-1.109344 -1.769290 6.852051 0.155820 -0.641758 -0.098289
-1.148589 -1.793484 7.206631 0.136567 -0.630703 -0.098793
-1.198902 -1.711706 7.535149 0.102232 -0.614450 -0.096154
-1.125297 -1.553258 7.884257 0.071148 -0.588245 -0.090852
-1.040540 -1.499169 8.558696 0.056152 -0.569239 -0.086586
-0.964643 -1.308448 9.167276 0.016476 -0.546347 -0.082059
-0.971998 -1.309758 10.018339 -0.012297 -0.519688 -0.078638
-1.044684 -1.239070 11.100118 -0.062869 -0.484753 -0.076608
-1.060656 -1.017251 12.218381 -0.140994 -0.449799 -0.076835
-1.152100 -1.021245 13.350784 -0.154324 -0.449434 -0.079523
-1.166178 -1.279525 15.041422 -0.138819 -0.431265 -0.079257
-1.160386 -1.420932 16.803099 -0.152459 -0.406536 -0.075170
-1.173295 -0.797978 17.321276 -0.289894 -0.367602 -0.067504
-1.325643 -0.640546 19.041617 -0.351529 -0.367786 -0.067352
-1.293228 -1.719600 22.425462 -0.237345 -0.336520 -0.062160
-1.071559 -1.524198 23.673534 -0.319283 -0.246810 -0.048790
-1.388959 -0.922844 24.763284 -0.450479 -0.276525 -0.061675
-1.406562 -1.648705 26.926403 -0.393705 -0.234725 -0.060622
-1.244270 -2.045800 28.775559 -0.393487 -0.144319 -0.051738
-1.249675 -1.906620 29.975843 -0.477959 -0.163576 -0.066743
-1.592268 -2.021831 30.983697 -0.522774 -0.219102 -0.072220
-1.150725 -2.854856 32.468869 -0.465042 -0.181522 -0.070561
-0.996925 -3.098512 32.948093 -0.511850 -0.206817 -0.080129
-1.179395 -3.619323 33.811639 -0.510585 -0.296425 -0.098632
-1.066007 -4.218018 34.285790 -0.490444 -0.312512 -0.104371
-0.643971 -4.589423 34.857948 -0.440761 -0.273760 -0.100552
-0.813004 -4.354864 34.587258 -0.439604 -0.369340 -0.117145
-0.787299 -4.070638 33.939933 -0.466161 -0.391363 -0.117640
-0.736916 -4.473254 33.697493 -0.438918 -0.408745 -0.122683
-0.563662 -4.881092 33.330064 -0.421480 -0.419099 -0.126437
-0.649475 -4.820674 32.668335 -0.416570 -0.504309 -0.139507
-0.401829 -4.486723 31.674544 -0.409254 -0.529123 -0.140773
-0.411992 -4.012145 30.552059 -0.423888 -0.608560 -0.155932
-0.704333 -3.821973 29.987988 -0.429217 -0.672733 -0.167759
-0.797740 -3.824374 29.218284 -0.421778 -0.698000 -0.177018
-1.014172 -3.728525 28.724630 -0.414813 -0.715529 -0.180634
-1.310894 -3.179569 27.401189 -0.459540 -0.753056 -0.188669
-1.362155 -2.806894 26.539450 -0.447157 -0.750815 -0.192413
-1.532955 -2.502720 26.038466 -0.417228 -0.787745 -0.199363
-1.487136 -1.847296 25.057790 -0.466290 -0.776003 -0.197057
-1.504585 -1.402127 24.336887 -0.521807 -0.786656 -0.199012
-1.451106 -1.486591 24.231659 -0.499626 -0.792870 -0.200891
-1.233793 -1.275566 24.055104 -0.490848 -0.773516 -0.196502
-1.235223 -0.512754 23.164069 -0.527098 -0.802983 -0.195743
-1.369247 -0.025747 22.626565 -0.537445 -0.846079 -0.196545
-1.415706 -0.052636 22.683891 -0.494524 -0.850295 -0.191963
-1.524774 -0.096670 22.545036 -0.471519 -0.862645 -0.190594
-1.585297 0.391783 21.775421 -0.513029 -0.874723 -0.186522
-1.586120 0.736432 21.134067 -0.523807 -0.889693 -0.182730
-1.501282 0.628670 21.017513 -0.464250 -0.890593 -0.177801
-1.444322 0.646911 20.641050 -0.432349 -0.881138 -0.171741
-1.407169 0.879288 19.737131 -0.449024 -0.869494 -0.165162
-1.332648 0.912621 18.864108 -0.438688 -0.851237 -0.156365
-1.232550 0.622696 18.805036 -0.391670 -0.838149 -0.154512
-1.196498 0.401982 18.614724 -0.359125 -0.831031 -0.154343
-1.308114 0.464741 18.047959 -0.371123 -0.842512 -0.155867
-1.493927 0.577223 17.451144 -0.370452 -0.876029 -0.159987
-1.437876 0.522587 17.293116 -0.327497 -0.875917 -0.159929
-1.441728 0.487624 17.110338 -0.278959 -0.885749 -0.161349
-1.485548 0.534774 16.675554 -0.261123 -0.887084 -0.160710
-1.531681 0.492418 16.354358 -0.256129 -0.866845 -0.155423
-1.536494 0.307225 16.206427 -0.240846 -0.839020 -0.150081
-1.664390 0.022231 16.116950 -0.211479 -0.846701 -0.149190
-1.499432 -0.010403 15.925423 -0.206137 -0.808863 -0.140850
-1.427240 -0.092573 15.783927 -0.187420 -0.800892 -0.139073
-1.410081 -0.143061 15.600685 -0.181361 -0.797835 -0.138771
-1.387127 -0.219074 15.562940 -0.181266 -0.773139 -0.134173
-1.383189 -0.332976 15.606938 -0.180319 -0.757399 -0.130098
-1.485592 -0.477468 15.738564 -0.170543 -0.759533 -0.124744
-1.405783 -0.609092 15.885119 -0.156866 -0.738457 -0.115773
-1.362255 -0.605696 15.927716 -0.156579 -0.735334 -0.111116
-1.323362 -0.748474 16.144082 -0.137495 -0.730160 -0.106894
-1.240307 -0.915420 16.354251 -0.120194 -0.711739 -0.102645
-1.210230 -1.068129 16.531857 -0.109611 -0.699208 -0.102024
-1.221359 -1.202142 16.622891 -0.103342 -0.689928 -0.103152
-1.189549 -1.322975 16.696188 -0.096115 -0.671141 -0.102736
-1.217077 -1.366434 16.654114 -0.094414 -0.668134 -0.105206
-1.238523 -1.371471 16.607977 -0.090143 -0.663399 -0.107208
-1.290292 -1.385056 16.485480 -0.085899 -0.667254 -0.109273
-1.316438 -1.332449 16.251248 -0.093781 -0.666099 -0.110299
-1.326248 -1.357918 16.060336 -0.096073 -0.670148 -0.112059
-1.314528 -1.428827 15.872322 -0.092168 -0.667774 -0.111361
-1.347423 -1.514560 15.744906 -0.082312 -0.683249 -0.113963
-1.281393 -1.647626 15.625110 -0.061208 -0.683191 -0.113134
-1.243510 -1.586079 15.231952 -0.072329 -0.686535 -0.112289
-1.273067 -1.541604 14.925445 -0.080869 -0.705382 -0.115591
-1.305231 -1.600778 14.610086 -0.077585 -0.712597 -0.115808
-1.264306 -1.615915 14.349405 -0.067735 -0.712900 -0.116761
-1.296686 -1.483250 13.863893 -0.070476 -0.721786 -0.116675
-1.319118 -1.272039 13.152961 -0.081656 -0.733214 -0.117247
-1.317971 -1.132903 12.522072 -0.089612 -0.728953 -0.115829
-1.315772 -1.234512 12.079373 -0.070815 -0.730703 -0.117159
-1.343117 -1.351399 11.678285 -0.051279 -0.736905 -0.117762
-1.315328 -1.412004 11.101721 -0.030320 -0.742801 -0.117533
-1.305393 -1.331604 10.470861 -0.010623 -0.758683 -0.117633
-1.303301 -1.129882 9.747407 -0.004875 -0.774907 -0.117965
-1.360163 -1.187497 9.409824 0.028396 -0.789621 -0.120651
-1.424984 -1.317658 9.096547 0.054997 -0.788844 -0.121508
-1.430539 -1.119655 8.476720 0.026057 -0.776779 -0.117911
-1.460671 -0.875747 7.906691 0.000861 -0.782199 -0.117500
-1.406091 -0.948919 7.818394 0.036318 -0.785518 -0.115314
-1.308469 -0.979295 7.618449 0.069988 -0.779990 -0.110183
-1.294585 -0.809198 7.194860 0.073334 -0.793797 -0.110325
-1.317366 -0.695770 7.019677 0.072466 -0.791390 -0.109255
-1.212339 -0.762924 7.000533 0.086617 -0.757247 -0.104108
-1.269073 -0.868696 7.142770 0.104291 -0.757914 -0.105325
-1.292541 -0.776622 7.167093 0.089222 -0.744252 -0.101855
-1.385601 -0.624913 7.149290 0.063685 -0.745710 -0.099785
-1.426367 -0.525041 7.260545 0.045257 -0.745189 -0.098281
-1.416369 -0.513206 7.530425 0.038918 -0.732834 -0.095128
-1.374476 -0.457134 7.624351 0.023063 -0.714960 -0.091265
-1.363587 -0.381874 7.673709 0.003943 -0.704944 -0.089054
-1.332341 -0.443105 7.803200 0.006617 -0.685999 -0.084172
-1.262723 -0.596777 8.081787 0.024696 -0.666504 -0.080237
-1.297752 -0.687467 8.273065 0.036087 -0.668373 -0.079440
-1.259865 -0.718377 8.412076 0.039955 -0.659013 -0.076547
-1.210079 -0.839357 8.721532 0.058531 -0.654686 -0.076366
-1.210747 -0.904208 8.891341 0.065670 -0.655716 -0.075906
-1.205827 -0.858212 9.207162 0.053003 -0.659920 -0.077872
-1.259878 -0.991690 9.614602 0.058113 -0.668357 -0.079632
-1.241902 -1.144066 10.165720 0.056733 -0.663485 -0.079815
-1.175943 -1.147131 10.614403 0.034252 -0.657994 -0.078685
-1.109464 -1.072418 11.049914 0.003716 -0.652723 -0.076814
-1.027658 -1.172467 11.692478 0.001531 -0.644822 -0.074157
-0.948490 -1.186943 12.234637 -0.013781 -0.625592 -0.070414
-0.985544 -1.147673 12.625010 -0.041197 -0.625635 -0.069871
-1.062431 -1.210662 13.068101 -0.057124 -0.624042 -0.070201
-1.087109 -1.427202 13.632882 -0.041876 -0.616263 -0.072313
-1.099437 -1.535112 13.859603 -0.034967 -0.614634 -0.075470
-1.164307 -1.515149 14.006254 -0.043545 -0.625580 -0.081060
-1.222985 -1.610317 14.083857 -0.036952 -0.634239 -0.084767
-1.246730 -1.589904 14.001394 -0.052904 -0.636303 -0.089120
-1.280508 -1.712495 14.021026 -0.051596 -0.636459 -0.092896
-1.265493 -1.802003 13.893418 -0.062835 -0.620678 -0.093499
-1.373926 -1.850887 13.784788 -0.062860 -0.632149 -0.097782
-1.310844 -1.848172 13.469275 -0.046574 -0.627662 -0.098922
-1.201253 -1.696480 13.062936 -0.022081 -0.624495 -0.097570
-1.199309 -1.589673 12.731677 0.002519 -0.650097 -0.102793
-1.234122 -1.548307 12.471202 0.011850 -0.649247 -0.101605
-1.178561 -1.616727 12.296371 0.020404 -0.634614 -0.100114
-1.214601 -1.604709 12.046237 0.014577 -0.637122 -0.099439
-1.216205 -1.511639 11.682740 0.001111 -0.640480 -0.096950
-1.204872 -1.420665 11.511494 -0.009142 -0.643393 -0.095189
-1.182621 -1.323925 11.338504 -0.010316 -0.654679 -0.091968
-1.209530 -1.330158 11.273718 -0.007870 -0.663973 -0.092816
-1.200758 -1.243317 11.240491 -0.016452 -0.665979 -0.091632
-1.177424 -1.205109 11.241098 -0.018651 -0.663101 -0.089838
-1.179338 -1.191641 11.234652 -0.018017 -0.666760 -0.089694
-1.184564 -1.218932 11.286100 -0.011708 -0.669907 -0.089605
-1.184774 -1.131080 11.213681 -0.024242 -0.664625 -0.087869
-1.196281 -1.134556 11.169253 -0.023312 -0.663976 -0.087081
-1.217354 -1.125593 11.070400 -0.021301 -0.657616 -0.085594
-1.220551 -1.139500 10.999119 -0.017499 -0.652986 -0.085822
-1.237914 -1.083734 10.819024 -0.022978 -0.647748 -0.085373
-1.257982 -1.059355 10.687728 -0.021028 -0.644902 -0.085417
-1.280815 -1.066277 10.531604 -0.013415 -0.645559 -0.086170
-1.316277 -1.047336 10.328908 -0.009037 -0.646054 -0.087335
-1.339903 -1.076548 10.164013 0.001728 -0.652184 -0.089697
-1.337864 -1.107077 10.011323 0.013516 -0.651623 -0.090037
-1.313811 -1.135140 9.819320 0.025587 -0.654073 -0.090987
-1.302627 -1.100856 9.634374 0.026347 -0.654746 -0.090394
-1.280638 -1.101665 9.455201 0.032350 -0.659969 -0.089974
-1.277103 -1.064575 9.312963 0.036424 -0.667788 -0.089438
-1.261586 -1.033703 9.147363 0.041113 -0.675037 -0.088420
-1.245695 -0.994075 8.980311 0.043613 -0.679989 -0.087230
-1.252872 -0.947453 8.829073 0.043094 -0.687168 -0.086466
-1.255530 -0.942755 8.715041 0.048067 -0.693983 -0.085859
-1.246088 -0.925199 8.574293 0.050640 -0.697335 -0.084361
-1.257346 -0.949949 8.521561 0.059217 -0.706406 -0.084897
-1.276833 -0.952993 8.461411 0.063888 -0.714805 -0.085913
-1.261799 -0.985519 8.433785 0.070364 -0.718272 -0.087128
-1.277054 -0.998177 8.460886 0.073084 -0.723648 -0.089129
-1.294681 -1.029317 8.512558 0.077083 -0.731533 -0.091506
-1.277092 -0.990175 8.513374 0.069703 -0.732556 -0.092604
-1.254342 -0.917650 8.594094 0.057013 -0.735874 -0.093863
-1.237007 -0.947724 8.756580 0.059161 -0.740332 -0.095158
-1.252708 -1.000063 8.981263 0.060348 -0.741092 -0.095672
-1.266794 -0.998113 9.197354 0.053490 -0.740487 -0.097088
-1.276724 -1.040811 9.444287 0.054013 -0.735088 -0.097247
-1.251161 -1.002266 9.638589 0.047042 -0.726414 -0.097781
-1.250328 -1.016415 9.974036 0.056175 -0.722454 -0.098643
-1.242990 -1.111420 10.362339 0.077568 -0.716354 -0.099265
-1.267798 -1.067481 10.669688 0.073740 -0.711034 -0.099866
-1.307469 -1.107050 10.943448 0.064066 -0.707134 -0.101620
-1.333880 -1.223952 11.364955 0.050212 -0.688157 -0.100879
-1.320647 -1.367278 11.766123 0.038261 -0.676823 -0.101867
-1.296425 -1.441000 12.121494 0.021669 -0.674953 -0.102386
-1.292467 -1.391128 12.267741 0.007966 -0.681969 -0.103098
-1.271400 -1.366950 12.433072 -0.000425 -0.688830 -0.102835
-1.251676 -1.407102 12.689424 0.002661 -0.698787 -0.104173
-1.238753 -1.464953 12.929809 0.004401 -0.705524 -0.104401
-1.207828 -1.487255 13.035056 0.000076 -0.707894 -0.104029
-1.183077 -1.508759 13.118409 -0.002011 -0.707711 -0.103519
-1.190967 -1.556810 13.184551 0.003869 -0.708993 -0.103399
-1.216730 -1.552777 13.189335 0.002972 -0.705525 -0.103393
-1.236946 -1.573493 13.198115 0.005419 -0.694797 -0.102648
-1.244674 -1.589322 13.198383 0.006676 -0.676768 -0.101632
-1.260741 -1.599283 13.160041 0.006645 -0.661621 -0.101285
-1.246584 -1.569497 13.094708 0.002314 -0.649172 -0.099809
-1.274548 -1.545839 13.020888 -0.000159 -0.651473 -0.099683
-1.270901 -1.541005 12.971928 0.000976 -0.651592 -0.098441
-1.254033 -1.543349 12.922874 0.002938 -0.650175 -0.096486
-1.265410 -1.480415 12.788608 -0.004932 -0.651006 -0.094610
-1.271150 -1.432633 12.651245 -0.012438 -0.651783 -0.093800
-1.274494 -1.512849 12.680754 0.001113 -0.647923 -0.092302
-1.281525 -1.442122 12.473121 -0.009411 -0.645809 -0.090628
-1.309689 -1.340805 12.242251 -0.023337 -0.651932 -0.090811
-1.303139 -1.348339 12.141797 -0.021833 -0.650393 -0.089024
-1.268452 -1.379063 12.075879 -0.017076 -0.650533 -0.088239
-1.254302 -1.333628 11.937804 -0.023115 -0.653442 -0.087426
-1.250103 -1.258218 11.763563 -0.034126 -0.660523 -0.088000
-1.230836 -1.246873 11.661697 -0.035236 -0.664124 -0.088307
-1.215705 -1.227409 11.554080 -0.033488 -0.665399 -0.087973
-1.238984 -1.207013 11.481107 -0.026445 -0.673361 -0.088825
-1.235280 -1.104038 11.293849 -0.025268 -0.673981 -0.088231
-1.233942 -1.084673 11.171322 -0.014381 -0.676330 -0.088326
-1.237581 -1.049321 11.034538 -0.010636 -0.673220 -0.088238
-1.248597 -1.011070 10.948714 -0.012316 -0.667596 -0.087151
-1.259235 -1.022035 10.866404 -0.009293 -0.663730 -0.086594
-1.247343 -1.011417 10.762566 -0.010598 -0.655466 -0.085439
-1.247205 -1.011556 10.716331 -0.007970 -0.652579 -0.085461
-1.252282 -1.019031 10.685670 -0.005185 -0.651601 -0.085462
-1.245771 -1.043448 10.686974 0.000797 -0.651198 -0.085437
-1.228283 -0.994766 10.666428 -0.005327 -0.648518 -0.085058
-1.227050 -0.972605 10.675049 -0.008309 -0.651767 -0.084888
-1.252813 -1.010831 10.872670 -0.003160 -0.663099 -0.085570
-1.248378 -0.930795 10.904559 -0.015070 -0.668805 -0.084718
-1.197500 -0.849773 11.093783 -0.014328 -0.676407 -0.085889
-1.108434 -0.839291 11.379906 0.003896 -0.683762 -0.085799
-1.022626 -0.764789 11.717467 0.019337 -0.689298 -0.084411
-0.983670 -0.687091 12.064340 0.010783 -0.703652 -0.085173
-0.997987 -0.697859 12.383888 -0.005211 -0.702322 -0.084285
-1.038915 -0.937718 13.042878 -0.027555 -0.691811 -0.083829
-1.133623 -1.225201 13.885666 -0.045738 -0.675728 -0.083993
-1.195892 -1.383563 14.971124 -0.060095 -0.668537 -0.084934
-1.138650 -1.258903 15.598231 -0.081045 -0.656016 -0.082187
-1.121631 -1.013425 16.240418 -0.114206 -0.651380 -0.084034
-1.276958 -1.128157 17.204191 -0.120587 -0.648718 -0.088762
-1.348643 -1.521394 18.370229 -0.127559 -0.605390 -0.091290
-1.306997 -1.551505 18.949820 -0.177188 -0.556675 -0.092261
-1.340152 -1.534842 19.379260 -0.209972 -0.545722 -0.097144
-1.345041 -1.725144 20.078226 -0.190624 -0.531992 -0.098375
-1.255797 -1.926546 20.717177 -0.172662 -0.511799 -0.098453
-1.372199 -1.930170 20.934247 -0.188524 -0.525913 -0.099244
-1.417937 -1.872435 20.887397 -0.219272 -0.533501 -0.097772
-1.261717 -2.091478 21.039995 -0.216127 -0.504860 -0.092362
-1.186505 -2.387552 21.241549 -0.203158 -0.507871 -0.096773
-1.260504 -2.422130 20.959661 -0.218862 -0.546226 -0.107203
-1.231523 -2.404770 20.730381 -0.212013 -0.566484 -0.111202
-1.101708 -2.389168 20.392482 -0.170149 -0.592759 -0.118248
-1.069622 -2.267985 19.998298 -0.135102 -0.612583 -0.119798
-1.002586 -2.039552 19.177173 -0.143133 -0.603510 -0.119286
-1.101629 -1.929267 18.539546 -0.158559 -0.608075 -0.123406
-1.201570 -2.146992 18.066243 -0.133589 -0.609194 -0.124408
-1.239742 -2.089421 17.376370 -0.129894 -0.607363 -0.123519
-1.345533 -1.774138 16.436789 -0.146613 -0.636735 -0.126386
-1.379290 -1.491938 15.552714 -0.152661 -0.656926 -0.128801
-1.287812 -1.457570 14.987722 -0.125909 -0.653377 -0.129939
-1.298568 -1.516814 14.558748 -0.093847 -0.666082 -0.134608
-1.288808 -1.384822 13.954997 -0.095640 -0.665375 -0.134670
-1.331205 -1.242092 13.266481 -0.094325 -0.687360 -0.137329
-1.385485 -1.150387 12.688973 -0.081579 -0.707662 -0.137001
-1.390349 -1.083819 12.242977 -0.063714 -0.720838 -0.134392
-1.400675 -1.099045 11.937431 -0.037567 -0.743779 -0.133285
-1.364554 -0.963776 11.366317 -0.036470 -0.757944 -0.128734
-1.362614 -0.640353 10.662016 -0.058646 -0.777226 -0.124799
-1.329573 -0.536567 10.217424 -0.046238 -0.797523 -0.121261
-1.200255 -0.581484 10.045291 -0.010737 -0.793215 -0.114836
-1.188441 -0.470896 9.737614 -0.005002 -0.791684 -0.108613
-1.208219 -0.328492 9.357671 -0.012219 -0.794697 -0.106702
-1.206918 -0.305226 9.234043 -0.008071 -0.774268 -0.103445
-1.225696 -0.425389 9.265780 0.014171 -0.764352 -0.105531
-1.366233 -0.321317 9.141636 0.001715 -0.770512 -0.111434
-1.450337 -0.192375 9.009920 -0.015994 -0.777905 -0.117123
-1.504796 -0.204326 9.034650 -0.013092 -0.784587 -0.119707
-1.493594 -0.207453 9.067500 -0.012075 -0.791430 -0.118047
-1.527535 -0.146599 9.034004 -0.022323 -0.800327 -0.116382
-1.446214 -0.062257 8.988963 -0.034784 -0.792685 -0.111603
-1.383636 -0.164894 9.026902 -0.018696 -0.785757 -0.108746
-1.355857 -0.229409 9.044331 -0.010830 -0.771604 -0.108149
-1.391436 -0.312924 9.047333 -0.004974 -0.756134 -0.108014
-1.417676 -0.435795 9.013006 0.004788 -0.738820 -0.107302
-1.416939 -0.576857 9.048991 0.020559 -0.722650 -0.105883
-1.430282 -0.695065 9.053517 0.040753 -0.717662 -0.103934
-1.405117 -0.729590 9.036845 0.051453 -0.712559 -0.100698
-1.407815 -0.776068 8.961024 0.060387 -0.718238 -0.099344
-1.417184 -0.793672 8.935004 0.059808 -0.720162 -0.096779
-1.375083 -0.850272 8.982305 0.064127 -0.717490 -0.093945
-1.282109 -0.918146 9.048890 0.070013 -0.699948 -0.086927
-1.169148 -0.952725 9.149187 0.071466 -0.682653 -0.081872
-1.143010 -0.936073 9.317677 0.064267 -0.672239 -0.076747
-1.062682 -0.989554 9.589447 0.064998 -0.648707 -0.070491
-0.995298 -1.031118 9.787773 0.061312 -0.622661 -0.064081
-1.027116 -0.995014 10.049734 0.050685 -0.617696 -0.063752
-1.072087 -1.079710 10.544471 0.065429 -0.604014 -0.061723
-1.045450 -1.147200 11.068692 0.081684 -0.585829 -0.060473
-1.140739 -1.126496 12.027483 0.063216 -0.595643 -0.063611
-1.157423 -1.061448 12.138913 0.041317 -0.593503 -0.063416
-1.202816 -1.149294 12.829298 0.006497 -0.594549 -0.064813
-1.159460 -1.337005 13.637174 -0.030998 -0.588053 -0.064833
-1.141745 -1.584225 14.905929 -0.038377 -0.610149 -0.066596
-0.939032 -1.438048 15.619506 -0.066650 -0.619507 -0.064376
-0.857808 -1.261458 16.455366 -0.089031 -0.636522 -0.067209
-0.997348 -1.469413 17.647414 -0.081372 -0.636250 -0.074247
-1.131135 -1.716670 18.227523 -0.110679 -0.587189 -0.077444
-1.252697 -1.675611 18.795963 -0.174700 -0.540064 -0.083387
-1.375331 -1.896850 19.146875 -0.183134 -0.515982 -0.087875
-1.327446 -2.178131 19.619625 -0.168884 -0.495795 -0.091425
-1.317051 -2.246217 19.670426 -0.187091 -0.490500 -0.092490
-1.444955 -2.225982 19.415630 -0.221472 -0.521624 -0.098509
-1.414505 -2.263498 19.231619 -0.216593 -0.533671 -0.098960
-1.214132 -2.388970 19.118945 -0.157834 -0.536320 -0.096999
-0.995857 -2.285527 18.655165 -0.116571 -0.541679 -0.093724
-1.042953 -1.979235 17.880225 -0.131112 -0.570975 -0.095224
-1.137462 -2.207093 17.587273 -0.095287 -0.595659 -0.098226
-1.172846 -2.409981 17.338469 -0.069111 -0.597235 -0.098029
-1.096449 -2.321600 16.813068 -0.073930 -0.598337 -0.100031
-1.138571 -2.047328 16.111416 -0.087132 -0.625108 -0.105009
-1.013671 -1.848589 15.629322 -0.080940 -0.618353 -0.106568
-1.027082 -1.705989 15.210737 -0.073583 -0.627664 -0.111426
-1.174084 -1.531972 14.686932 -0.088552 -0.645813 -0.117054
-1.230825 -1.422797 14.316816 -0.105699 -0.645640 -0.117790
-1.210221 -1.281469 13.981151 -0.126380 -0.634843 -0.117493
-1.208892 -1.358825 13.819176 -0.111547 -0.634438 -0.117474
-1.214158 -1.260347 13.633443 -0.116642 -0.633719 -0.117927
-1.310649 -1.121489 13.404676 -0.120337 -0.652625 -0.119817
-1.328647 -1.011508 13.331145 -0.111216 -0.667968 -0.120711
-1.308133 -0.960196 13.374723 -0.092306 -0.676531 -0.119801
-1.278114 -0.789159 13.424202 -0.084987 -0.686175 -0.118976
-1.220175 -0.640625 13.510175 -0.085308 -0.689967 -0.116719
-1.119821 -0.525023 13.500307 -0.111365 -0.683796 -0.113694
-1.212622 -0.567848 13.914920 -0.134881 -0.692807 -0.112742
-1.236457 -0.736326 14.291881 -0.152902 -0.687759 -0.110421
-1.198862 -0.722537 14.758702 -0.171359 -0.674126 -0.106369
-1.129548 -0.676846 15.203318 -0.174862 -0.668876 -0.104047
-1.130267 -0.576271 15.553058 -0.186794 -0.663238 -0.101600
-1.161734 -0.639419 16.109425 -0.191193 -0.654850 -0.102366
-1.247323 -0.894738 16.765572 -0.189644 -0.636519 -0.103001
-1.345845 -1.125231 17.346112 -0.185210 -0.628813 -0.105126
-1.356926 -1.232015 17.631020 -0.183890 -0.617429 -0.105341
-1.346890 -1.220576 17.804515 -0.187680 -0.613958 -0.107069
-1.349139 -1.310570 17.989781 -0.176264 -0.616367 -0.110034
-1.340414 -1.374154 18.047443 -0.174068 -0.612674 -0.112056
-1.303371 -1.358847 18.005210 -0.188997 -0.600829 -0.112801
-1.312532 -1.396208 17.974358 -0.193070 -0.596710 -0.112788
-1.347407 -1.490821 17.939949 -0.188440 -0.601281 -0.113748
-1.312947 -1.507278 17.857527 -0.190590 -0.593405 -0.113424
-1.290071 -1.472928 17.726027 -0.187788 -0.589057 -0.112215
-1.259554 -1.512593 17.706425 -0.161177 -0.604285 -0.113541
-1.223852 -1.547481 17.627996 -0.134856 -0.609462 -0.111867
-1.126600 -1.520777 17.460547 -0.126197 -0.602189 -0.110356
-1.191156 -1.436321 17.205706 -0.132452 -0.614016 -0.110956
-1.240627 -1.474163 17.013190 -0.123097 -0.620335 -0.110512
-1.169676 -1.400812 16.743489 -0.126876 -0.608356 -0.107737
-1.167629 -1.304230 16.355179 -0.131603 -0.613064 -0.107482
-1.212654 -1.236172 16.050805 -0.134604 -0.624052 -0.108771
-1.195714 -1.222780 15.715728 -0.132990 -0.616041 -0.106071
-1.196586 -1.273801 15.506507 -0.122953 -0.621582 -0.107433
-1.214383 -1.252313 15.244986 -0.121445 -0.623155 -0.106824
-1.185042 -1.250112 15.038420 -0.117442 -0.621678 -0.106476
-1.190811 -1.250742 14.880843 -0.112096 -0.623805 -0.106495
-1.198623 -1.241506 14.734480 -0.111243 -0.626535 -0.107051
-1.226618 -1.201778 14.626283 -0.114880 -0.629562 -0.107262
-1.263808 -1.163557 14.487722 -0.120820 -0.633488 -0.107492
-1.290454 -1.158783 14.465715 -0.121428 -0.634821 -0.108226
-1.282064 -1.142800 14.486091 -0.124070 -0.630396 -0.107802
-1.273647 -1.092876 14.479790 -0.131304 -0.631507 -0.108011
-1.258822 -0.963793 14.515147 -0.143208 -0.632698 -0.107914
-1.213914 -0.951268 14.634835 -0.135691 -0.632084 -0.107424
-1.206038 -0.945449 14.797319 -0.126992 -0.636198 -0.108003
-1.176685 -0.936144 14.924379 -0.121612 -0.636041 -0.108244
-1.163691 -0.948020 14.992140 -0.115151 -0.637865 -0.108499
-1.162255 -0.998619 15.038941 -0.106419 -0.641282 -0.109668
-1.175892 -1.028416 15.132221 -0.101809 -0.644401 -0.110990
-1.208292 -1.086054 15.100616 -0.103348 -0.648339 -0.111087
-1.258732 -1.072222 14.989217 -0.120135 -0.646988 -0.110772
-1.308645 -1.100525 14.856371 -0.134096 -0.641434 -0.111497
-1.357136 -1.219908 14.679621 -0.140881 -0.631964 -0.110553
-1.381234 -1.353844 14.605146 -0.143675 -0.629317 -0.109756
-1.336109 -1.364416 14.374779 -0.154892 -0.628131 -0.107149
-1.302884 -1.293155 14.091779 -0.166632 -0.631461 -0.104902
-1.298994 -1.315675 13.892876 -0.149615 -0.642408 -0.104984
-1.260003 -1.237830 13.654269 -0.134242 -0.637787 -0.101071
-1.237096 -1.090663 13.239940 -0.121225 -0.641926 -0.100643
-1.286869 -0.984561 12.844637 -0.107726 -0.648274 -0.100717
-1.298561 -0.992815 12.568236 -0.091129 -0.648078 -0.100814
-1.316220 -1.046171 12.326589 -0.072396 -0.652761 -0.100955
-1.320888 -0.994329 11.939292 -0.068316 -0.660109 -0.100019
-1.315254 -0.900333 11.541433 -0.061462 -0.678619 -0.100331
-1.284691 -0.856969 11.219102 -0.043422 -0.693632 -0.099698
-1.237299 -0.857125 10.900425 -0.024965 -0.701855 -0.100944
-1.257108 -0.790755 10.566077 -0.024337 -0.710016 -0.103842
-1.280328 -0.765966 10.294344 -0.023964 -0.712210 -0.106821
-1.278315 -0.808102 10.066753 -0.012167 -0.706513 -0.108060
-1.271013 -0.834825 9.913114 -0.001037 -0.710090 -0.110289
-1.296881 -0.764197 9.702941 -0.000443 -0.720632 -0.111436
-1.297634 -0.748694 9.624936 0.004901 -0.727937 -0.111584
-1.312268 -0.826099 9.725968 0.020274 -0.739569 -0.111985
-1.262649 -0.805049 9.786852 0.016760 -0.742925 -0.111453
-1.186414 -0.691949 9.806393 -0.001467 -0.742658 -0.109681
-1.225424 -0.661014 9.974896 -0.002509 -0.757414 -0.110874
-1.224898 -0.698577 10.106327 0.003107 -0.753513 -0.110339
-1.240365 -0.600633 10.276746 -0.007827 -0.735965 -0.108654
-1.317654 -0.635744 10.458779 -0.002587 -0.733457 -0.110412
-1.331407 -0.723375 10.731213 0.010763 -0.711284 -0.107865
-1.253380 -0.735543 10.925908 0.008919 -0.681191 -0.104944
-1.312044 -0.787163 11.128074 0.003911 -0.679435 -0.106004
-1.339595 -0.897734 11.418658 -0.000510 -0.671998 -0.105617
-1.344939 -1.035803 11.763856 -0.005010 -0.663669 -0.104446
-1.335278 -1.142879 12.195133 -0.019269 -0.669601 -0.105161
-1.288582 -1.176523 12.413515 -0.025712 -0.665699 -0.103196
-1.207880 -1.168866 12.637330 -0.038277 -0.665088 -0.102541
-1.196741 -1.214953 12.950580 -0.038958 -0.672040 -0.102384
-1.199997 -1.277629 13.276178 -0.037539 -0.677488 -0.102228
-1.205846 -1.319666 13.522696 -0.041901 -0.680106 -0.100434
-1.188493 -1.361485 13.790232 -0.046382 -0.680107 -0.099010
-1.185173 -1.458136 14.119988 -0.041833 -0.677140 -0.097123
-1.154040 -1.524858 14.327271 -0.037915 -0.673390 -0.096083
-1.148518 -1.514763 14.440320 -0.042970 -0.669228 -0.095166
-1.185689 -1.530176 14.537946 -0.044599 -0.668718 -0.095575
-1.205634 -1.554262 14.597238 -0.047278 -0.655741 -0.095515
-1.227630 -1.593144 14.603226 -0.047006 -0.643691 -0.096414
-1.262943 -1.619293 14.611710 -0.046641 -0.637447 -0.097312
-1.274037 -1.640610 14.568496 -0.046839 -0.630725 -0.097365
-1.269886 -1.613097 14.510034 -0.051013 -0.627681 -0.097521
-1.265606 -1.569448 14.479777 -0.053625 -0.629306 -0.097076
-1.269378 -1.564634 14.438114 -0.050157 -0.632845 -0.096342
-1.275073 -1.583904 14.541384 -0.045669 -0.633182 -0.096913
-1.269945 -1.625475 14.663912 -0.038748 -0.628531 -0.096756
-1.244018 -1.563926 14.721646 -0.042921 -0.626592 -0.096324
-1.226416 -1.513559 14.848571 -0.044305 -0.633307 -0.096895
-1.168980 -1.417659 14.989452 -0.057725 -0.629734 -0.096521
-1.153598 -1.419612 15.296345 -0.066179 -0.634546 -0.099740
-1.143336 -1.422061 15.638316 -0.078501 -0.631695 -0.100703
-1.150752 -1.371133 15.975320 -0.096601 -0.633038 -0.104068
-1.141622 -1.325457 16.391402 -0.113984 -0.628252 -0.106331
-1.146327 -1.326045 16.854425 -0.126986 -0.623709 -0.108217
-1.137964 -1.403718 17.436290 -0.133656 -0.620500 -0.108742
-1.139175 -1.335597 17.827260 -0.165144 -0.604639 -0.104720
-1.229615 -1.377817 18.443648 -0.190255 -0.592825 -0.102950
-1.279119 -1.406266 19.072594 -0.204450 -0.570174 -0.098913
-1.249651 -1.433423 19.894575 -0.212252 -0.540960 -0.093246
-1.199517 -1.315930 20.651973 -0.238565 -0.517248 -0.088380
-1.178084 -1.318818 21.620346 -0.264739 -0.498030 -0.087157
-1.150309 -1.508020 22.854990 -0.283962 -0.475070 -0.087843
-1.140726 -1.681560 24.429298 -0.296084 -0.462742 -0.090165
-1.136419 -1.795664 25.653718 -0.308484 -0.452453 -0.090445
-1.114730 -1.318263 26.320950 -0.407543 -0.418793 -0.086732
-1.252367 -1.612623 28.125413 -0.403169 -0.412564 -0.091282
-1.205146 -2.183468 29.836149 -0.368008 -0.368841 -0.088233
-1.260089 -2.157005 30.626697 -0.423734 -0.351901 -0.087485
-1.287005 -1.977397 31.238944 -0.487327 -0.367014 -0.093640
-1.149755 -2.146002 31.820808 -0.483455 -0.362055 -0.092162
-0.926626 -2.523191 32.444756 -0.453491 -0.376001 -0.099154
-0.895756 -2.922190 32.744220 -0.440168 -0.415663 -0.107640
-0.774772 -3.225254 32.662408 -0.445087 -0.431397 -0.111017
-0.723960 -3.397440 32.412213 -0.444973 -0.462591 -0.118080
-0.797535 -3.487625 32.318147 -0.409200 -0.513841 -0.128649
-0.817017 -3.255400 31.813682 -0.383464 -0.551678 -0.139976
-0.895386 -3.149189 31.377908 -0.354334 -0.577610 -0.149075
-1.070290 -3.089347 30.959150 -0.345374 -0.622055 -0.160638
-1.125679 -3.019705 30.378397 -0.351660 -0.653334 -0.165874
-1.072875 -2.886881 29.666399 -0.363758 -0.671061 -0.167891
-1.236911 -2.703366 28.728622 -0.364669 -0.720252 -0.172060
-1.198601 -2.340387 27.982175 -0.381992 -0.717766 -0.171157
-1.279253 -2.148232 27.028741 -0.372550 -0.729256 -0.170611
-1.362622 -1.970263 26.269000 -0.362630 -0.752950 -0.175156
-1.356074 -1.756147 25.191378 -0.361000 -0.754642 -0.176385
-1.429393 -1.486197 24.147497 -0.366776 -0.779615 -0.184234
-1.565375 -1.267850 23.044785 -0.363513 -0.809012 -0.189693
-1.521465 -1.134731 21.986940 -0.343692 -0.815101 -0.189901
-1.531262 -0.955944 20.759335 -0.328071 -0.836434 -0.188837
-1.475556 -0.653763 19.625142 -0.324272 -0.858902 -0.188326
-1.483742 -0.771833 18.797907 -0.242607 -0.899525 -0.186348
-1.385244 -0.600907 17.455750 -0.215281 -0.907343 -0.176100
-1.314424 -0.071004 16.076100 -0.236263 -0.928862 -0.170968
-1.435996 0.057434 14.672319 -0.203485 -0.961948 -0.162890
-1.202133 0.054328 14.058844 -0.162983 -0.941045 -0.157255
-1.175792 0.011412 13.667426 -0.119564 -0.942128 -0.155974
-1.225327 0.202913 12.830494 -0.124438 -0.960119 -0.158172
-1.298702 0.888931 11.709930 -0.190858 -0.964391 -0.158779
-1.267692 0.936590 11.575616 -0.151054 -0.965818 -0.162266
-1.402565 0.733948 12.002130 -0.071873 -0.960548 -0.156144
-1.360674 1.117019 11.780225 -0.100730 -0.929724 -0.146198
-1.532357 1.288938 11.849072 -0.128801 -0.918730 -0.142794
-1.661726 1.079946 12.183339 -0.148012 -0.881324 -0.136493
-1.804993 0.887225 12.854294 -0.168057 -0.855943 -0.134206
-1.721446 0.682586 13.582879 -0.172412 -0.818929 -0.124610
-1.532245 0.776758 14.240799 -0.180554 -0.805115 -0.117990
-1.372038 0.960368 14.797368 -0.196499 -0.792951 -0.111826
-1.276542 0.976827 15.419132 -0.209576 -0.757280 -0.100506
-1.338407 0.632066 16.579883 -0.199481 -0.734712 -0.096361
-1.364736 -0.075055 18.063088 -0.153674 -0.696321 -0.090721
-1.287154 -0.084271 18.861079 -0.201235 -0.654503 -0.083424
-1.335357 0.120225 19.573219 -0.253033 -0.671134 -0.083321
-1.231592 -0.156630 20.913812 -0.231323 -0.672405 -0.079941
-1.061930 -0.901026 23.008129 -0.178888 -0.636869 -0.077684
-1.257829 -1.172219 24.436822 -0.233394 -0.627741 -0.084606
-1.291657 -1.128983 25.112066 -0.337576 -0.531333 -0.079496
-1.303142 -1.539268 26.568661 -0.310145 -0.485568 -0.084095
-1.365093 -2.174772 28.176344 -0.250514 -0.432558 -0.080974
-1.230976 -2.581815 29.407735 -0.252304 -0.347344 -0.071944
-1.419190 -2.392989 30.035757 -0.357708 -0.341254 -0.074703
-1.419493 -2.578634 30.450363 -0.422278 -0.343873 -0.080824
-1.097074 -3.281513 31.750890 -0.402623 -0.342079 -0.088538
-0.900670 -4.054610 32.908869 -0.337143 -0.375416 -0.097815
-0.797521 -3.746654 32.815707 -0.366374 -0.427926 -0.106306
-0.678690 -3.287126 32.308557 -0.394246 -0.449853 -0.108335
-0.865771 -3.675812 32.566395 -0.332715 -0.483971 -0.116773
-0.912097 -4.289810 32.839441 -0.292133 -0.470815 -0.122075
-0.973225 -4.332030 32.343110 -0.333952 -0.474155 -0.125274
-0.864569 -4.225756 31.831777 -0.347528 -0.496321 -0.128580
-0.659818 -4.127772 31.661229 -0.320196 -0.519668 -0.131386
-0.612735 -3.995199 31.498083 -0.310393 -0.555042 -0.138336
-0.779595 -3.502134 30.904341 -0.363309 -0.604895 -0.148396
-0.876582 -3.150696 30.427326 -0.394378 -0.620622 -0.151824
-0.851734 -3.131486 30.309511 -0.372143 -0.614589 -0.154722
-0.972623 -3.031098 30.106202 -0.365157 -0.627336 -0.158122
-1.176172 -2.630941 29.370799 -0.417802 -0.657230 -0.162364
-1.411217 -2.366369 28.784413 -0.456810 -0.695264 -0.166508
-1.459054 -2.260120 28.618377 -0.459882 -0.721961 -0.169374
-1.403652 -2.110896 28.515261 -0.461062 -0.745760 -0.171351
-1.316736 -1.635063 28.022222 -0.508561 -0.763365 -0.172464
-1.258060 -1.219444 27.720064 -0.540194 -0.771374 -0.168710
-1.220484 -1.025515 27.735335 -0.534568 -0.776558 -0.164859
-1.217117 -0.815623 27.856106 -0.541862 -0.776708 -0.161015
-1.285509 -0.562213 27.850233 -0.571770 -0.790570 -0.160547
-1.265728 -0.381315 27.912583 -0.585889 -0.790058 -0.158199
-1.200863 -0.220647 28.137607 -0.578882 -0.789048 -0.157110
-1.251579 -0.003010 28.231791 -0.578305 -0.792812 -0.156635
-1.274761 0.105006 28.288602 -0.581303 -0.780550 -0.157098
-1.431357 0.104324 28.367986 -0.585620 -0.777261 -0.157378
-1.465331 -0.045679 28.429850 -0.569840 -0.760737 -0.156336
-1.441145 -0.141154 28.405967 -0.553820 -0.738632 -0.154867
-1.443351 -0.195671 28.337970 -0.539580 -0.733343 -0.156757
-1.439328 -0.267003 28.359929 -0.522710 -0.728784 -0.158540
-1.434903 -0.280904 28.323297 -0.515424 -0.725181 -0.159868
-1.445936 -0.295171 28.394735 -0.507677 -0.731846 -0.163401
-1.427089 -0.338394 28.551533 -0.499208 -0.731538 -0.164777
-1.348692 -0.465733 28.827678 -0.481551 -0.719507 -0.164138
-1.288108 -0.488165 28.988378 -0.484173 -0.707462 -0.162191
-1.312230 -0.573862 29.294700 -0.481429 -0.705942 -0.161286
-1.323749 -0.694367 29.632771 -0.477481 -0.697619 -0.159449
-1.297565 -0.888617 30.209347 -0.475235 -0.669462 -0.154342
-1.305247 -1.013278 30.633900 -0.474432 -0.660302 -0.153068
-1.288387 -1.080899 31.154184 -0.480693 -0.639797 -0.149378
-1.253978 -1.161854 31.693640 -0.484994 -0.620456 -0.145819
-1.264841 -1.208962 32.212516 -0.497637 -0.612236 -0.146391
-1.303502 -1.322755 32.738387 -0.505921 -0.613873 -0.149733
-1.340076 -1.453259 33.265022 -0.512171 -0.612946 -0.152104
-1.325373 -1.712248 33.795083 -0.494507 -0.603041 -0.154314
-1.459103 -2.007914 34.112044 -0.471687 -0.608833 -0.158493
-1.459008 -2.180234 34.113098 -0.474100 -0.607178 -0.163849
-1.471219 -2.377523 34.143590 -0.463062 -0.619448 -0.167478
-1.394503 -2.508264 33.993268 -0.462735 -0.640161 -0.170998
-1.332430 -2.615336 33.839446 -0.463537 -0.665404 -0.174105
-1.230940 -2.751527 33.673661 -0.439765 -0.683343 -0.175841
-1.092533 -2.509555 32.973027 -0.442857 -0.690423 -0.174990
-1.081636 -2.166991 32.263665 -0.431641 -0.712155 -0.177285
-1.094896 -2.169344 31.486399 -0.389138 -0.712678 -0.176114
-1.129838 -2.104481 30.192558 -0.393447 -0.698678 -0.170855
-1.264843 -1.976941 28.970905 -0.402504 -0.711474 -0.170248
-1.376640 -1.866181 27.724939 -0.372946 -0.731757 -0.166932
-1.220898 -1.348782 25.970431 -0.372366 -0.729314 -0.160281
-1.237533 -1.212190 24.539717 -0.342120 -0.763720 -0.163941
-1.337432 -1.224710 23.645221 -0.315827 -0.785169 -0.166521
-1.197558 -1.166934 22.412226 -0.313401 -0.767632 -0.159932
-1.159641 -0.864984 20.914845 -0.317259 -0.804158 -0.158369
-1.156863 -0.651175 20.039531 -0.289083 -0.847391 -0.156279
-1.161344 -0.508566 19.311363 -0.243229 -0.894599 -0.156244
-0.915534 -0.050564 18.483473 -0.254390 -0.895639 -0.152004
-1.148353 0.366048 17.783727 -0.248287 -0.963138 -0.154365
-1.132722 0.339081 17.441172 -0.208753 -0.961481 -0.150451
-1.157879 0.589115 16.908760 -0.226170 -0.931924 -0.142270
-1.305039 0.862410 16.242616 -0.268438 -0.912086 -0.137272
-1.412699 0.712816 16.427324 -0.258083 -0.873233 -0.129077
-1.368247 0.505778 16.839318 -0.239446 -0.849880 -0.128661
-1.432998 0.577630 17.013219 -0.269525 -0.851179 -0.133177
-1.476672 0.813260 17.186397 -0.320607 -0.859905 -0.138741
-1.534406 0.653334 17.979000 -0.306807 -0.876886 -0.142024
-1.439250 0.527683 18.856322 -0.298857 -0.850171 -0.131617
-1.547045 0.469355 19.545490 -0.307602 -0.844477 -0.124934
-1.632202 0.326739 20.364462 -0.303225 -0.825321 -0.118384
-1.596166 0.044002 21.225743 -0.280359 -0.790130 -0.111230
-1.479422 -0.158236 21.992876 -0.278898 -0.740412 -0.101588
-1.469632 -0.286295 22.823829 -0.286457 -0.731105 -0.099746
-1.311134 -0.566202 23.516586 -0.275538 -0.692750 -0.090071
-1.094969 -0.905137 24.294218 -0.247034 -0.663173 -0.085304
-1.011583 -1.205237 24.945835 -0.244852 -0.660707 -0.085900
-1.024121 -1.400831 25.132904 -0.259858 -0.668553 -0.088716
-1.042783 -1.692455 25.553285 -0.264203 -0.674893 -0.092078
-1.090949 -2.137216 25.982302 -0.255967 -0.675076 -0.096890
-1.137552 -2.339360 26.338767 -0.253104 -0.670329 -0.099723
-1.172697 -2.230123 26.279741 -0.254847 -0.662437 -0.101295
-1.369569 -2.304681 26.365227 -0.212741 -0.656337 -0.106074
-1.355010 -2.372292 26.256277 -0.189947 -0.617042 -0.107499
-1.312505 -2.517348 26.004930 -0.186686 -0.589460 -0.106208
-1.249194 -2.650908 25.755828 -0.187169 -0.595187 -0.108729
-0.937784 -2.769032 25.399832 -0.158343 -0.606891 -0.106812
-0.893511 -2.766667 25.349112 -0.148790 -0.621764 -0.108852
-0.891415 -2.588286 25.071728 -0.159976 -0.656721 -0.112200
-0.937734 -2.397447 24.908456 -0.183333 -0.681816 -0.116498
-1.015277 -2.351086 24.755786 -0.193640 -0.689716 -0.120654
-1.047157 -2.336757 24.907792 -0.194314 -0.674973 -0.122488
-1.113831 -2.247167 24.912505 -0.197995 -0.674398 -0.124676
-1.172398 -2.091554 24.873751 -0.199813 -0.683511 -0.125087
-1.135700 -1.931602 24.971250 -0.197780 -0.681925 -0.123048
-1.043945 -1.851220 25.058294 -0.204857 -0.664432 -0.118912
-0.998904 -1.864044 25.276095 -0.233459 -0.650183 -0.116877
-1.009217 -1.895067 25.752739 -0.270201 -0.640548 -0.116542
-0.905762 -1.822287 26.056204 -0.311254 -0.620701 -0.112870
-0.890089 -1.567260 26.640675 -0.333242 -0.633626 -0.114243
-1.054059 -1.276374 27.314248 -0.350007 -0.670889 -0.118024
-1.133577 -1.066533 27.976842 -0.381078 -0.674203 -0.120779
-1.333255 -1.011905 28.810677 -0.419368 -0.675053 -0.125099
-1.414688 -1.051136 29.885562 -0.441319 -0.656663 -0.125622
-1.398281 -1.023199 30.917508 -0.456466 -0.635830 -0.121847
-1.348404 -0.964316 32.083708 -0.464115 -0.619520 -0.119338
-1.328324 -1.087472 33.476148 -0.458744 -0.604229 -0.119400
-1.323713 -1.119734 34.666866 -0.482702 -0.581352 -0.121742
-1.365067 -1.310697 35.920437 -0.489856 -0.559705 -0.125986
-1.426268 -1.501395 37.103204 -0.493511 -0.525549 -0.126148
-1.474222 -1.463826 37.892050 -0.527655 -0.500538 -0.127958
-1.547755 -1.454623 38.748506 -0.557008 -0.505431 -0.133234
-1.472276 -1.660429 39.633115 -0.555621 -0.513746 -0.134244
-1.327442 -2.041553 40.238690 -0.523477 -0.542736 -0.140538
-1.207154 -2.286651 40.439198 -0.531993 -0.566050 -0.143847
-1.104456 -2.625871 40.629770 -0.534190 -0.606416 -0.153143
-1.091613 -3.232077 41.203953 -0.487979 -0.637915 -0.158635
-0.919825 -3.587609 41.362489 -0.474951 -0.638409 -0.164423
-1.017179 -3.532078 41.273087 -0.482186 -0.673609 -0.173295
-1.059708 -3.296910 40.991054 -0.463508 -0.703448 -0.179315
-1.109414 -3.107950 40.776499 -0.432397 -0.736763 -0.187585
-1.148479 -3.054570 40.373943 -0.432988 -0.760127 -0.192786
-1.106844 -2.976202 39.829245 -0.454017 -0.779744 -0.197038
-1.003315 -2.831743 38.957263 -0.468155 -0.820581 -0.202665
-0.838710 -2.760122 38.415537 -0.444848 -0.831059 -0.202358
-0.797236 -2.544656 37.474749 -0.427436 -0.847886 -0.204721
-0.914478 -2.242869 36.264598 -0.442236 -0.843635 -0.199942
-1.217815 -2.030652 34.991533 -0.462388 -0.869105 -0.201453
-1.314212 -1.968460 33.861676 -0.444806 -0.858617 -0.196953
-1.338748 -1.798624 32.583905 -0.419940 -0.866280 -0.196254
-1.437543 -1.431925 31.233168 -0.416636 -0.899112 -0.198031
-1.493745 -1.116591 29.971578 -0.406045 -0.924013 -0.198538
-1.351540 -1.001849 29.050149 -0.371613 -0.924405 -0.196655
-1.207011 -0.800958 28.081018 -0.346349 -0.939367 -0.198371
-1.069137 -0.293806 26.669780 -0.378970 -0.933871 -0.201508
-1.116739 0.107689 25.592240 -0.390261 -0.954220 -0.210239
-1.293209 0.018413 24.954266 -0.335297 -0.974748 -0.216460
-1.431484 0.296367 24.066895 -0.327831 -0.976625 -0.218419
-1.589841 0.552670 23.241367 -0.321325 -0.993267 -0.218991
-1.535857 0.697575 22.559501 -0.296928 -0.994047 -0.215108
-1.490505 0.965601 21.887373 -0.289990 -1.013295 -0.213730
-1.307347 1.136576 21.345938 -0.288537 -1.014407 -0.211112
-1.353330 1.171495 21.159645 -0.279590 -1.035322 -0.206838
-1.305201 1.090677 21.110940 -0.278715 -1.029600 -0.199013
-1.375183 0.929279 21.369796 -0.279451 -0.999340 -0.185431
-1.394665 0.910491 21.502605 -0.296600 -0.956483 -0.172034
-1.581011 0.988498 21.787872 -0.310820 -0.944974 -0.171839
-1.749261 0.834421 22.412419 -0.293088 -0.926928 -0.171571
-1.728944 0.682870 22.913012 -0.292216 -0.872035 -0.164878
-1.926965 0.485603 23.510686 -0.293320 -0.888367 -0.170495
-1.868157 0.205965 24.171225 -0.279943 -0.868617 -0.167387
-1.605180 0.028214 25.011400 -0.262178 -0.830408 -0.161270
-1.471152 -0.203724 25.682599 -0.240349 -0.828384 -0.159706
-1.407456 -0.290585 26.261165 -0.249961 -0.814172 -0.155411
-1.354363 -0.509669 26.700229 -0.248826 -0.787107 -0.150859
-1.433068 -0.927665 27.152961 -0.237266 -0.776333 -0.148102
-1.419746 -1.258997 27.660546 -0.239121 -0.750481 -0.142718
-1.413251 -1.531841 27.889325 -0.255033 -0.745626 -0.141546
-1.363023 -1.815766 28.340645 -0.252498 -0.747238 -0.142023
-1.279040 -1.964249 28.777403 -0.223858 -0.751247 -0.139740
-1.187015 -1.869865 29.034593 -0.200885 -0.755747 -0.136496
-1.154603 -1.882309 29.194147 -0.185966 -0.747430 -0.135754
-1.164445 -2.094273 29.421705 -0.182859 -0.719981 -0.139660
-1.242418 -2.482255 29.634211 -0.169570 -0.679247 -0.143641
-1.373635 -2.630662 29.623932 -0.163299 -0.655805 -0.146986
-1.436735 -2.485332 29.183193 -0.170550 -0.650191 -0.150242
-1.457655 -2.408683 28.967086 -0.171535 -0.658461 -0.152583
-1.397587 -2.490374 28.813122 -0.163028 -0.678126 -0.157103
-1.315854 -2.693983 28.697741 -0.140796 -0.712652 -0.161885
-1.141137 -2.520128 28.148226 -0.164187 -0.723753 -0.160775
-1.039568 -2.275545 27.520057 -0.178033 -0.755938 -0.164933
-1.100773 -2.203175 27.020636 -0.164079 -0.782842 -0.166677
-1.115729 -2.207438 26.503242 -0.150819 -0.781188 -0.166057
-1.171887 -2.008440 25.644958 -0.176442 -0.762525 -0.161665
-1.263477 -1.754863 24.514981 -0.201106 -0.749547 -0.158334
-1.292347 -1.450825 23.572228 -0.215686 -0.726280 -0.153091
-1.311451 -1.470114 22.769489 -0.187656 -0.718575 -0.152621
-1.376253 -1.413100 22.322434 -0.170674 -0.727092 -0.153309
-1.348182 -1.236065 21.487730 -0.177173 -0.734486 -0.148962
-1.177838 -1.042294 20.649511 -0.177037 -0.755826 -0.144238
-1.103410 -0.864042 20.128082 -0.167422 -0.791362 -0.140408
-1.131213 -0.826588 19.664401 -0.143002 -0.836499 -0.141355
-1.102414 -0.570609 18.993831 -0.157565 -0.847329 -0.136740
-1.142980 -0.410158 18.418090 -0.156610 -0.873682 -0.135356
-1.180664 -0.337806 17.856951 -0.143630 -0.887412 -0.131868
-1.182161 -0.206239 17.233881 -0.145317 -0.877218 -0.126062
-1.188413 -0.037379 16.587521 -0.147471 -0.872168 -0.125158
-1.256784 0.026295 16.150252 -0.128808 -0.878346 -0.130212
-1.224254 -0.030248 15.876795 -0.098471 -0.869593 -0.132990
-1.172062 0.069546 15.611102 -0.105902 -0.852283 -0.135719
-1.241988 0.070519 15.540584 -0.101339 -0.861942 -0.141435
-1.264335 -0.017463 15.725940 -0.078944 -0.853208 -0.140519
-1.343689 0.061191 16.147130 -0.067970 -0.848049 -0.137353
-1.547668 0.058274 16.840508 -0.052830 -0.852118 -0.131619
-1.544538 0.145309 17.269921 -0.090023 -0.798615 -0.119758
-1.669825 0.088890 18.254351 -0.142240 -0.775973 -0.119736
-1.721960 -0.098840 19.573601 -0.185313 -0.749919 -0.116853
-1.450425 -0.442060 21.623609 -0.180705 -0.706781 -0.109063
-1.191565 -0.400515 23.356367 -0.204658 -0.678708 -0.098369
-1.111572 -0.256197 25.176729 -0.250290 -0.668613 -0.090511
-0.994654 -0.455560 27.334086 -0.270060 -0.638829 -0.083391
-0.877845 -0.599049 29.212700 -0.326463 -0.564299 -0.077465
-1.221127 -1.180465 31.791163 -0.317305 -0.543693 -0.089274
-1.370705 -1.750098 33.937193 -0.310148 -0.472496 -0.096109
-1.574899 -1.777460 35.103667 -0.363631 -0.422404 -0.105331
-1.820676 -1.814251 36.008824 -0.444814 -0.411059 -0.111184
-1.892983 -2.578438 37.521662 -0.418527 -0.407234 -0.108579
-1.503818 -3.671466 38.682380 -0.374187 -0.355592 -0.098338
-1.250879 -3.802158 39.152679 -0.417397 -0.350749 -0.096748
-0.956333 -3.649014 38.935106 -0.429918 -0.363072 -0.100790
-0.707766 -3.429387 38.712755 -0.408678 -0.373900 -0.108329
-0.797287 -3.921386 38.677109 -0.336687 -0.418999 -0.123889
-0.963193 -4.434467 38.416937 -0.325119 -0.436182 -0.131529
-0.891127 -4.558373 37.538173 -0.350662 -0.465246 -0.134178
-0.658690 -4.447302 36.848105 -0.337804 -0.528179 -0.137256
-0.313338 -4.313410 36.343453 -0.297187 -0.559626 -0.137650
-0.372246 -3.985855 35.753752 -0.322879 -0.615305 -0.152372
-0.795402 -3.694797 35.195834 -0.358280 -0.699863 -0.175286
-0.993988 -3.624641 34.861051 -0.356802 -0.709448 -0.182121
-0.942571 -3.464736 34.535604 -0.351482 -0.700807 -0.185688
-0.942885 -3.091801 33.908948 -0.373582 -0.716832 -0.186688
-0.982758 -2.864864 33.477831 -0.392090 -0.726491 -0.184480
-1.103956 -2.699227 32.891440 -0.423823 -0.745570 -0.183822
-1.276662 -2.483295 32.402892 -0.457724 -0.777150 -0.184912
-1.311723 -2.096653 31.855647 -0.486141 -0.799903 -0.183703
-1.311344 -1.590259 31.303267 -0.511651 -0.820686 -0.183949
-1.286540 -1.383445 30.854046 -0.502945 -0.829830 -0.184588
-1.479730 -1.042882 30.432101 -0.520165 -0.861591 -0.189551
-1.657743 -0.755795 29.809057 -0.534614 -0.893405 -0.194308
-1.693287 -0.666447 29.345146 -0.507784 -0.902801 -0.193066
-1.584198 -0.486417 29.054392 -0.480304 -0.915876 -0.192586
-1.470574 -0.219806 28.465234 -0.466968 -0.917194 -0.184911
-1.310164 -0.121691 27.977065 -0.443502 -0.905005 -0.176738
-1.272794 0.044775 27.428463 -0.440466 -0.899388 -0.169588
-1.299362 0.264187 26.727134 -0.446210 -0.912425 -0.166748
-1.297886 0.294380 26.243436 -0.421426 -0.920323 -0.163458
-1.184932 0.475622 25.454821 -0.423005 -0.907354 -0.156689
-1.212197 0.741771 24.538263 -0.439809 -0.920509 -0.154747
-1.236588 0.818149 23.882659 -0.441437 -0.929304 -0.152503
-1.292425 0.518719 23.235210 -0.392820 -0.936202 -0.154205
-1.304175 0.514420 23.028861 -0.387807 -0.940857 -0.156002
-1.347808 0.513845 22.562643 -0.362393 -0.954067 -0.159364
-1.324564 0.474625 22.161932 -0.310083 -0.957822 -0.163394
-1.305626 0.286623 21.936036 -0.240607 -0.949664 -0.167786
-1.390626 0.201417 21.577124 -0.211299 -0.940970 -0.173317
-1.557416 0.205388 21.065229 -0.218225 -0.941977 -0.176230
-1.622521 0.086543 20.685752 -0.210663 -0.941311 -0.173103
-1.610858 0.056240 20.257824 -0.207126 -0.938716 -0.165727
-1.546254 0.123848 19.754206 -0.204882 -0.936278 -0.161177
-1.616063 0.226457 19.061578 -0.208511 -0.946941 -0.159728
-1.576284 0.228106 18.511842 -0.198725 -0.936351 -0.157646
-1.574820 -0.012639 18.209553 -0.165284 -0.911061 -0.154598
-1.569947 -0.248414 17.964347 -0.136472 -0.896744 -0.155488
-1.616979 -0.416801 17.636153 -0.119209 -0.887005 -0.152167
-1.496170 -0.695736 17.621313 -0.082640 -0.863846 -0.141968
-1.471479 -0.801231 17.708306 -0.069575 -0.862231 -0.136079
-1.385241 -0.849285 17.803685 -0.067173 -0.846645 -0.126646
-1.363265 -0.811179 17.933777 -0.080904 -0.829847 -0.117825
-1.351502 -0.813531 18.120458 -0.089116 -0.810684 -0.110969
-1.370252 -0.862037 18.424461 -0.089397 -0.789295 -0.103661
-1.313390 -0.795531 18.479534 -0.108272 -0.753274 -0.094146
-1.244829 -0.764393 18.638033 -0.120655 -0.722804 -0.087010
-1.208547 -0.877717 18.938938 -0.106987 -0.703103 -0.081685
-1.079069 -1.016595 19.227232 -0.091016 -0.666278 -0.073566
-1.058320 -1.071870 19.387983 -0.086231 -0.656015 -0.070982
-1.079893 -1.151886 19.626904 -0.076934 -0.653637 -0.070032
-1.077181 -1.320776 20.004006 -0.052730 -0.652802 -0.070838
-1.071373 -1.417470 20.407088 -0.043954 -0.653796 -0.072353
-1.100731 -1.451908 20.819573 -0.054856 -0.664877 -0.076441
-1.138671 -1.452768 21.363492 -0.080003 -0.677901 -0.079729
-1.161792 -1.601014 22.022600 -0.101052 -0.686263 -0.081521
-1.158084 -1.765571 23.049298 -0.113072 -0.687063 -0.083604
-1.113665 -1.706408 23.874178 -0.147611 -0.675212 -0.083411
-1.093857 -1.619019 24.638310 -0.176219 -0.671981 -0.084985
-1.028462 -1.589948 25.638446 -0.201393 -0.652112 -0.083267
-1.038990 -1.902631 27.016737 -0.188104 -0.645359 -0.086881
-1.112602 -2.123895 28.178741 -0.194990 -0.627070 -0.089396
-1.171988 -2.035889 28.801859 -0.249977 -0.603282 -0.092837
-1.271156 -2.189037 29.914169 -0.255929 -0.595078 -0.102556
-1.256029 -2.451117 31.171554 -0.242201 -0.565194 -0.107504
-1.367847 -2.503527 31.808527 -0.268192 -0.540129 -0.108992
-1.537059 -2.412005 32.337228 -0.317833 -0.532699 -0.110857
-1.560889 -2.562261 32.892063 -0.323727 -0.519605 -0.106757
-1.369253 -2.763159 33.409688 -0.311953 -0.502777 -0.101735
-1.224153 -2.867984 33.620653 -0.315815 -0.516661 -0.103360
-1.051744 -2.828609 33.592207 -0.335636 -0.528321 -0.108766
-0.793981 -2.916376 33.740636 -0.330993 -0.537099 -0.114141
-0.754989 -3.005156 33.996003 -0.320354 -0.563443 -0.120457
-0.742458 -2.893652 34.094102 -0.336399 -0.570322 -0.121839
-0.760201 -2.756156 34.097621 -0.352299 -0.570340 -0.120882
-0.835268 -2.685696 34.392064 -0.348763 -0.570527 -0.124946
-0.910974 -2.733457 34.626680 -0.327656 -0.583946 -0.132935
-1.014842 -2.558173 34.699570 -0.326951 -0.611373 -0.144418
-1.087864 -2.352431 34.718788 -0.328674 -0.646492 -0.156509
-1.123633 -2.196497 34.781084 -0.331679 -0.673072 -0.163940
-1.076791 -2.140805 34.811790 -0.342907 -0.678011 -0.162972
-1.070026 -2.094889 34.810473 -0.367192 -0.681213 -0.163310
-1.083885 -2.067531 34.734751 -0.393232 -0.685302 -0.163995
-1.129494 -2.025616 34.569601 -0.404266 -0.697434 -0.165918
-1.262765 -1.954098 34.369723 -0.402435 -0.738083 -0.172939
-1.353298 -1.911969 34.129999 -0.400929 -0.766351 -0.176917
-1.331109 -1.806474 33.637554 -0.409259 -0.787171 -0.182038
-1.388841 -1.748582 33.164385 -0.409633 -0.826053 -0.190586
-1.378990 -1.742970 32.575974 -0.406202 -0.854408 -0.199859
-1.425352 -1.582196 31.797392 -0.427285 -0.878727 -0.207243
-1.506165 -1.450781 30.934172 -0.431794 -0.908870 -0.214368
-1.512508 -1.282328 30.195679 -0.417410 -0.920795 -0.215980
-1.416358 -0.954638 29.411732 -0.400584 -0.912543 -0.212711
-1.409065 -0.720451 28.699866 -0.384053 -0.909379 -0.210322
-1.394284 -0.571060 28.076734 -0.375953 -0.884454 -0.204079
-1.399972 -0.546549 27.598264 -0.362611 -0.861738 -0.198663
-1.430380 -0.464366 26.955261 -0.363696 -0.840976 -0.193721
-1.487051 -0.355503 26.313590 -0.360881 -0.838326 -0.190978
-1.489164 -0.355777 25.792075 -0.334083 -0.846369 -0.187897
-1.429148 -0.259881 25.213133 -0.320028 -0.853350 -0.181638
-1.371714 0.011081 24.422813 -0.331053 -0.868408 -0.175472
-1.338178 0.233097 23.550812 -0.328858 -0.897927 -0.173465
-1.295853 0.197516 22.907336 -0.284186 -0.920676 -0.173328
-1.272680 0.106015 22.312156 -0.246471 -0.929188 -0.174902
-1.320886 0.093290 21.507737 -0.227140 -0.947792 -0.179514
-1.353298 0.085308 20.620498 -0.213012 -0.960400 -0.184363
-1.283012 0.038115 20.069200 -0.185954 -0.958153 -0.185784
-1.307041 -0.054171 19.409503 -0.150391 -0.972989 -0.183869
-1.419131 0.037654 18.438972 -0.145305 -0.989423 -0.178480
-1.530671 0.083050 17.622394 -0.136747 -0.994172 -0.175408
-1.604739 0.003456 16.791355 -0.113527 -0.995902 -0.174299
-1.645764 0.082045 15.728512 -0.112213 -0.987159 -0.170508
-1.680878 0.182704 14.767048 -0.105185 -0.985873 -0.170023
-1.632798 -0.062356 14.187896 -0.038812 -0.980981 -0.168542
-1.572578 -0.193831 13.455480 0.009130 -0.975501 -0.164127
-1.589304 -0.014197 12.163524 -0.006010 -0.975589 -0.157842
-1.623396 -0.035377 11.422931 0.004170 -0.966921 -0.151649
-1.559818 -0.567502 11.298641 0.087895 -0.936918 -0.143605
-1.457986 -0.615661 10.611017 0.106069 -0.895021 -0.132626
-1.510579 -0.196011 9.648164 0.067977 -0.902263 -0.130320
-1.495179 -0.076033 8.924838 0.071104 -0.890960 -0.123105
-1.381865 -0.335062 8.890971 0.122012 -0.867149 -0.118614
-1.413230 -0.460302 8.707214 0.146886 -0.853712 -0.113630
-1.397916 -0.304102 7.936248 0.126231 -0.828148 -0.103474
-1.284608 -0.076162 7.156029 0.107847 -0.792055 -0.091685
-1.307161 -0.260682 6.985593 0.156752 -0.785043 -0.088033
-1.337411 -0.646212 6.948480 0.222619 -0.767847 -0.085023
-1.363701 -0.462365 6.142334 0.198582 -0.732763 -0.082004
-1.475366 -0.277483 5.369993 0.176162 -0.735449 -0.085814
-1.438466 -0.493862 4.976620 0.228624 -0.729242 -0.084899
-1.302009 -0.700740 4.896384 0.273683 -0.724183 -0.083921
-1.340157 -0.614074 4.255014 0.284144 -0.759374 -0.088403
-1.405234 -0.301102 3.353919 0.257867 -0.770606 -0.086364
-1.345741 -0.248962 2.672666 0.261433 -0.774071 -0.087649
-1.371548 -0.545994 2.609289 0.317626 -0.783904 -0.092552
-1.309681 -0.486665 2.004241 0.315603 -0.753886 -0.089707
-1.378771 -0.256012 1.227533 0.287008 -0.761159 -0.093684
-1.511081 -0.359873 0.997978 0.313212 -0.782486 -0.097883
-1.390134 -0.560090 0.873912 0.349694 -0.754276 -0.091312
-1.383317 -0.522792 0.543539 0.352142 -0.769734 -0.093267
-1.399085 -0.366870 0.063046 0.339218 -0.778709 -0.092865
-1.289590 -0.377108 0.017585 0.350655 -0.759206 -0.090432
-1.301290 -0.630459 0.125481 0.389794 -0.762962 -0.092014
-1.375893 -0.561728 0.050689 0.379644 -0.767890 -0.092731
-1.458628 -0.348401 -0.128677 0.345086 -0.770717 -0.091795
-1.458503 -0.353998 -0.047453 0.336916 -0.764809 -0.090004
-1.400766 -0.537360 0.326781 0.353682 -0.744605 -0.085690
-1.440550 -0.486838 0.422528 0.336541 -0.743931 -0.084398
-1.489748 -0.415335 0.417437 0.313929 -0.741623 -0.083228
-1.381064 -0.407818 0.614795 0.301522 -0.717964 -0.081654
-1.447710 -0.643435 1.061401 0.322606 -0.723735 -0.081140
-1.333181 -0.696595 1.265657 0.316839 -0.703319 -0.076189
-1.338632 -0.552601 1.298051 0.283125 -0.706256 -0.072954
-1.334840 -0.523883 1.352282 0.271113 -0.716099 -0.070546
-1.318530 -0.571736 1.436911 0.272921 -0.722107 -0.067236
-1.302312 -0.632387 1.575650 0.277166 -0.728854 -0.065740
-1.273630 -0.568191 1.527501 0.259318 -0.725762 -0.063028
-1.250794 -0.645807 1.716575 0.262860 -0.727814 -0.062868
-1.120288 -0.896101 2.082354 0.293658 -0.716931 -0.061610
-1.052851 -1.006381 2.397714 0.307526 -0.703808 -0.055959
-1.005505 -0.893443 2.501942 0.290334 -0.713689 -0.056448
-1.054985 -0.814631 2.767200 0.280176 -0.717840 -0.052353
-0.883429 -0.891414 3.489523 0.280974 -0.698736 -0.049809
-0.863453 -1.078469 4.450357 0.280949 -0.689397 -0.047781
-0.838274 -1.122119 5.177424 0.233780 -0.672120 -0.046410
-0.922910 -0.933202 5.823632 0.133203 -0.656853 -0.045240
-0.971904 -0.973992 7.550733 0.083580 -0.652954 -0.049543
-0.896757 -1.639278 10.229732 0.121995 -0.644304 -0.048469
-0.654477 -1.350565 11.714450 0.041071 -0.610936 -0.038875
-0.634119 -0.487809 12.739263 -0.123684 -0.599761 -0.039214
-0.919906 -0.891782 15.716356 -0.118797 -0.613091 -0.054691
-0.839680 -1.837754 18.448572 -0.082100 -0.446394 -0.037685
-1.057617 -1.369170 20.550998 -0.233332 -0.381700 -0.051915
-1.662683 -1.498887 22.693358 -0.283647 -0.381884 -0.062775
-1.330921 -1.611185 24.378829 -0.334254 -0.250184 -0.049286
-1.365437 -1.906872 26.985374 -0.342183 -0.259580 -0.062426
-1.483852 -2.453382 29.669092 -0.428589 -0.232472 -0.057060
-1.450455 -2.376486 29.800486 -0.468336 -0.219319 -0.054868
-1.462731 -2.750754 30.847927 -0.497986 -0.232319 -0.062197
-1.531570 -3.947378 32.717225 -0.433854 -0.223349 -0.061352
-1.130902 -4.547194 33.727746 -0.432193 -0.186124 -0.068756
-1.055054 -4.159263 33.521676 -0.483229 -0.245977 -0.081363
-0.986447 -4.064950 33.667700 -0.441322 -0.337231 -0.096053
-0.795287 -4.575140 34.275748 -0.359651 -0.348370 -0.098460
-0.703761 -5.245581 34.302095 -0.354709 -0.358096 -0.104531
-0.873988 -5.297227 34.112208 -0.414318 -0.430539 -0.114997
-0.415397 -5.280324 33.824176 -0.418298 -0.408558 -0.105630
-0.191582 -5.363167 33.976996 -0.366938 -0.440252 -0.116711
-0.595747 -4.948331 33.707754 -0.406680 -0.540797 -0.145776
-0.923867 -4.593571 33.344312 -0.449458 -0.601862 -0.165412
-0.892088 -4.493518 33.169557 -0.449644 -0.621632 -0.173969
-0.684232 -4.344986 32.899644 -0.445574 -0.630584 -0.169823
-0.674669 -3.825485 32.203530 -0.482619 -0.690338 -0.172770
-0.634568 -3.482297 31.312925 -0.494851 -0.706504 -0.164333
-0.716842 -3.415892 30.792795 -0.470184 -0.733587 -0.165405
-1.127452 -3.077409 29.863470 -0.499239 -0.779607 -0.168562
-1.331869 -2.502903 28.571019 -0.547009 -0.791867 -0.172663
-1.361559 -2.207409 27.793216 -0.535959 -0.790463 -0.182724
-1.518507 -1.954849 27.163268 -0.513237 -0.818605 -0.193702
-1.551574 -1.491981 26.250525 -0.523511 -0.850812 -0.198538
-1.571286 -0.845190 24.884827 -0.566002 -0.895452 -0.199064
-1.535517 -0.491121 24.227220 -0.548132 -0.939939 -0.201038
-1.282089 -0.251467 23.257039 -0.509800 -0.929445 -0.194041
-1.379790 -0.062220 22.907091 -0.465624 -0.968913 -0.200891
-1.478030 0.144809 22.168209 -0.452218 -0.963595 -0.196591
-1.491723 0.519329 21.114887 -0.474786 -0.949825 -0.193667
-1.657101 0.874120 20.428672 -0.483500 -0.986831 -0.197156
-1.612781 1.028269 19.926071 -0.451204 -1.000371 -0.195308
-1.474156 1.245396 19.385377 -0.435120 -0.997651 -0.192721
-1.546846 1.530422 18.703782 -0.444047 -1.026838 -0.196016
-1.561262 1.671620 18.234622 -0.440843 -1.035570 -0.194162
-1.462720 1.545276 17.892638 -0.404452 -1.017730 -0.186288
-1.449710 1.302685 17.688790 -0.353081 -1.013899 -0.182958
-1.510294 1.270672 17.367131 -0.341423 -0.999580 -0.178501
-1.644967 1.033532 17.270879 -0.305446 -1.000704 -0.178395
-1.621138 0.825661 17.346251 -0.277787 -0.971948 -0.175591
-1.734361 0.682022 17.511418 -0.260591 -0.964818 -0.175317
-1.816719 0.583229 17.602150 -0.253980 -0.957488 -0.175405
-1.753838 0.415306 17.942090 -0.241803 -0.922120 -0.169740
-1.717274 0.307486 17.956185 -0.236848 -0.904283 -0.163746
-1.703636 0.370284 17.931050 -0.262675 -0.893150 -0.157492
-1.630861 0.129313 18.056252 -0.250053 -0.862054 -0.147400
-1.483686 -0.139327 18.323510 -0.225848 -0.818294 -0.136429
-1.420659 -0.309358 18.360704 -0.202984 -0.796462 -0.128793
-1.410224 -0.337381 18.188253 -0.182692 -0.788314 -0.125936
-1.311981 -0.471377 18.137605 -0.142213 -0.764367 -0.120473
-1.284033 -0.639141 17.934259 -0.113532 -0.752146 -0.118132
-1.300133 -0.815574 17.732871 -0.104228 -0.744253 -0.117285
-1.306420 -1.051475 17.520127 -0.094475 -0.736238 -0.115444
-1.202164 -1.177464 17.262987 -0.085672 -0.721402 -0.111413
-1.168979 -1.189998 16.981555 -0.072260 -0.732819 -0.110359
-1.061720 -1.141187 16.552905 -0.066980 -0.721828 -0.105496
-1.025962 -1.145539 16.266558 -0.069119 -0.714996 -0.104163
-1.031952 -1.378388 16.040246 -0.060438 -0.701875 -0.104399
-1.048487 -1.576906 15.770449 -0.060153 -0.686730 -0.104147
-1.092565 -1.567776 15.423708 -0.065810 -0.691241 -0.104516
-1.095738 -1.542035 15.055544 -0.055389 -0.701422 -0.104378
-1.096035 -1.455711 14.712455 -0.045647 -0.713759 -0.105376
-1.139666 -1.396792 14.216666 -0.052475 -0.724441 -0.107023
-1.228295 -1.481964 13.826553 -0.056667 -0.730684 -0.108955
-1.298805 -1.570885 13.417067 -0.063049 -0.730954 -0.108733
-1.323725 -1.600930 12.949733 -0.060501 -0.743352 -0.109531
-1.331178 -1.439677 12.256735 -0.061963 -0.753261 -0.107467
-1.315030 -1.279509 11.661536 -0.050508 -0.773916 -0.109355
-1.336807 -1.280920 11.148069 -0.023808 -0.782425 -0.110464
-1.327618 -1.265885 10.524723 -0.015702 -0.769098 -0.109802
-1.370574 -1.166538 9.765570 -0.025202 -0.765766 -0.110791
-1.411380 -1.090961 9.133149 -0.021525 -0.769093 -0.110332
-1.385808 -1.117459 8.632824 0.015303 -0.777311 -0.109557
-1.371265 -1.167434 8.427616 0.070526 -0.795778 -0.110951
-1.359740 -1.040622 7.724425 0.092156 -0.816089 -0.110957
-1.379254 -0.619042 6.658203 0.057871 -0.832367 -0.112849
-1.378038 -0.673006 6.370671 0.085085 -0.844201 -0.119576
-1.432568 -0.982744 6.222157 0.141488 -0.835414 -0.118245
-1.419175 -0.776333 5.527875 0.126484 -0.831415 -0.118070
-1.534404 -0.476923 4.792184 0.113867 -0.853538 -0.119378
-1.483507 -0.526141 4.538613 0.158710 -0.850857 -0.116825
-1.305481 -0.619906 4.331060 0.209501 -0.832208 -0.113970
-1.270908 -0.434046 3.777029 0.202973 -0.825047 -0.113695
-1.402688 -0.110819 3.052145 0.167838 -0.835687 -0.117801
-1.373483 -0.238761 2.940646 0.193721 -0.806937 -0.116068
-1.450559 -0.576210 3.132499 0.250267 -0.798442 -0.116611
-1.542234 -0.419999 2.720078 0.237328 -0.800748 -0.115557
-1.588661 -0.059002 2.291549 0.205598 -0.796782 -0.112469
-1.464947 -0.233328 2.456201 0.240492 -0.775929 -0.108780
-1.362862 -0.342213 2.736024 0.263037 -0.762064 -0.106113
-1.418839 -0.259333 2.914018 0.247977 -0.776268 -0.107385
-1.402756 -0.107396 2.899963 0.209551 -0.768407 -0.103444
-1.368131 -0.057105 3.304516 0.191458 -0.758673 -0.100694
-1.369723 -0.078377 3.658874 0.187695 -0.752791 -0.098218
-1.266284 -0.220200 4.334077 0.207719 -0.713644 -0.088939
-1.244014 -0.134397 4.637178 0.190066 -0.693996 -0.083649
-1.202657 -0.097454 4.857426 0.161456 -0.677951 -0.078802
-1.309393 -0.124021 5.177388 0.139746 -0.682049 -0.077291
-1.299074 -0.379677 5.781619 0.137247 -0.664455 -0.070865
-1.266861 -0.697570 6.527320 0.142946 -0.667966 -0.069891
-1.152195 -0.793492 7.098268 0.127531 -0.660605 -0.062721
-1.014806 -0.704007 7.627012 0.102281 -0.675688 -0.059087
-0.862173 -0.790862 8.409708 0.110024 -0.683133 -0.054105
-0.817072 -1.088495 9.490568 0.139612 -0.688226 -0.051281
-0.827359 -1.086466 10.149329 0.103282 -0.674644 -0.048035
-0.896096 -0.939953 10.596757 0.033953 -0.668438 -0.047738
-0.899045 -1.041118 11.337017 -0.005828 -0.639131 -0.043432
-0.856820 -1.439767 12.652444 0.012928 -0.614311 -0.044504
-0.926459 -1.560590 13.696623 0.003063 -0.599797 -0.045180
-0.926970 -1.329756 14.371295 -0.050904 -0.580015 -0.047248
-1.005562 -1.523660 15.629041 -0.055946 -0.566502 -0.053406
-1.005091 -1.501383 16.483134 -0.126325 -0.508644 -0.054483
-1.158593 -1.718247 17.798071 -0.154677 -0.488990 -0.063593
-1.213128 -2.219107 19.564158 -0.134848 -0.457369 -0.068844
-1.187043 -2.379973 21.039743 -0.149199 -0.446974 -0.077153
-1.233954 -2.041546 21.754784 -0.248169 -0.431822 -0.078631
-1.327256 -1.825747 22.768286 -0.322506 -0.443046 -0.086152
-1.388334 -2.494489 24.976951 -0.268516 -0.440494 -0.088501
-1.168343 -2.926642 27.024158 -0.268087 -0.369859 -0.078712
-1.285612 -2.586925 27.625117 -0.386562 -0.348854 -0.071897
-1.371682 -2.246201 28.256382 -0.491372 -0.329342 -0.069186
-1.357276 -3.008258 30.352316 -0.412677 -0.311179 -0.075162
-1.113033 -3.589312 32.181910 -0.363857 -0.281165 -0.079928
-1.123619 -3.362978 32.745423 -0.451099 -0.312386 -0.087234
-0.949837 -3.067163 33.114379 -0.555382 -0.316695 -0.086444
-0.812041 -3.408311 34.181354 -0.534991 -0.348368 -0.092079
-0.797215 -4.113193 35.747337 -0.449969 -0.385542 -0.097624
-0.748746 -4.044427 36.005599 -0.483955 -0.393475 -0.098862
-0.915605 -3.716058 35.795333 -0.563073 -0.442821 -0.110430
-0.988712 -3.960914 36.191700 -0.552752 -0.478812 -0.126435
-0.817482 -4.501926 36.917003 -0.485370 -0.466048 -0.131460
-0.736231 -4.410541 36.876130 -0.500420 -0.511584 -0.142165
-0.784873 -3.880293 36.101775 -0.572266 -0.580389 -0.144770
-0.591500 -3.937536 36.100986 -0.546685 -0.617441 -0.148888
-0.328040 -4.059510 35.928496 -0.516194 -0.613497 -0.146807
-0.501521 -3.655555 35.134361 -0.556008 -0.671656 -0.158938
-0.785037 -3.206713 34.056094 -0.585916 -0.720488 -0.170466
-0.963709 -2.978370 33.328683 -0.559838 -0.740146 -0.184287
-1.351526 -2.760915 32.599570 -0.538290 -0.803696 -0.203321
-1.597933 -2.260393 31.471236 -0.564825 -0.845915 -0.211964
-1.489818 -1.638394 30.300724 -0.590301 -0.840280 -0.210389
-1.399977 -1.350957 29.565830 -0.551055 -0.860843 -0.215069
-1.192084 -1.076033 28.991494 -0.510055 -0.852581 -0.215605
-1.312424 -0.636613 28.085502 -0.523104 -0.883132 -0.220876
-1.384154 -0.437341 27.314862 -0.546693 -0.903395 -0.227825
-1.429717 -0.508474 27.041001 -0.550293 -0.901358 -0.230965
-1.306880 -0.487872 26.753226 -0.554320 -0.885038 -0.234493
-1.442650 -0.150949 26.422742 -0.565154 -0.909660 -0.241392
-1.580764 0.193597 26.156329 -0.564072 -0.931692 -0.245773
-1.711755 0.444733 25.844203 -0.560821 -0.932428 -0.245146
-1.847075 0.590463 25.491051 -0.574052 -0.932709 -0.244017
-1.856835 0.756793 24.848449 -0.592560 -0.918269 -0.237637
-1.704342 0.712382 24.215341 -0.566974 -0.889234 -0.229586
-1.582213 0.351130 23.619919 -0.494347 -0.875562 -0.223197
-1.544640 0.301531 23.163693 -0.482125 -0.876251 -0.218208
-1.539037 0.267865 22.390667 -0.476078 -0.899741 -0.213369
-1.484745 0.224947 21.799278 -0.451042 -0.915579 -0.207364
-1.373840 0.196234 21.345759 -0.407469 -0.929240 -0.202785
-1.334556 0.314331 20.794810 -0.369562 -0.946958 -0.200818
-1.474145 0.430650 20.296710 -0.340555 -0.973382 -0.201715
-1.485429 0.506105 19.885043 -0.334791 -0.967100 -0.199340
-1.587988 0.474794 19.793816 -0.332125 -0.959708 -0.193210
-1.629482 0.333837 19.875888 -0.316063 -0.961034 -0.191540
-1.525407 0.413113 19.846627 -0.334224 -0.911245 -0.179921
-1.445240 0.300034 20.390694 -0.311513 -0.872571 -0.174611
-1.389759 0.157445 20.891759 -0.282694 -0.819750 -0.164183
-1.358259 0.177683 21.666453 -0.291157 -0.768079 -0.155827
-1.535222 0.060472 22.605738 -0.315676 -0.758354 -0.154636
-1.493454 -0.377396 23.979603 -0.333116 -0.703784 -0.143968
-1.421209 -0.564604 25.144628 -0.374473 -0.681157 -0.138486
-1.355695 -0.593477 26.376128 -0.404697 -0.685079 -0.133699
-1.219616 -0.822104 27.749377 -0.379345 -0.688821 -0.127957
-0.945968 -0.948299 28.965774 -0.385408 -0.667225 -0.116750
-0.974570 -1.102206 29.945448 -0.415906 -0.676585 -0.117386
-1.050828 -1.475719 30.758111 -0.421205 -0.638234 -0.119561
-1.135333 -2.071775 31.426584 -0.407832 -0.582514 -0.125349
-1.257148 -2.655591 31.776050 -0.425473 -0.531196 -0.133595
-1.256146 -2.938251 31.709251 -0.423505 -0.505933 -0.135384
-1.437985 -2.974274 31.486971 -0.407210 -0.521221 -0.138126
-1.325426 -2.900664 30.965367 -0.347577 -0.536055 -0.142408
-1.271443 -2.711508 30.096271 -0.310686 -0.548609 -0.140703
-1.196224 -2.606764 29.169040 -0.305029 -0.581905 -0.148442
-1.197044 -2.772123 27.977200 -0.301090 -0.613642 -0.152281
-1.019869 -2.926181 26.982674 -0.281501 -0.631533 -0.157602
-1.013536 -2.919064 25.833538 -0.246099 -0.683261 -0.165066
-0.964179 -2.593592 24.241478 -0.238178 -0.713104 -0.166139
-1.089825 -2.168238 22.683937 -0.255405 -0.767849 -0.174429
-1.167256 -2.046460 20.998354 -0.254594 -0.755464 -0.168147
-1.122802 -1.983697 19.887438 -0.240603 -0.742993 -0.166556
-1.325732 -1.952447 18.830655 -0.189293 -0.788924 -0.168434
-1.135880 -1.640999 17.002194 -0.169864 -0.771930 -0.152172
-1.144946 -0.901477 15.138068 -0.196209 -0.817660 -0.147488
-1.233527 -0.488798 13.259947 -0.192911 -0.881153 -0.150914
-1.171693 -1.069209 13.035308 -0.047896 -0.907907 -0.154340
-1.083235 -1.169708 11.861355 0.011481 -0.907615 -0.153983
-1.237256 -0.305508 9.539074 -0.056897 -0.944824 -0.161395
-1.557185 0.193632 8.120034 -0.054021 -1.024770 -0.177532
-1.581163 -0.591288 7.574585 0.135524 -1.032299 -0.178354
-1.510001 -0.036263 6.029172 0.120629 -1.002098 -0.164167
-1.764459 0.782583 4.209781 0.058020 -1.075130 -0.168922
-2.020489 0.317601 3.636383 0.166695 -1.083267 -0.165029
-1.522674 0.305520 2.532852 0.202286 -0.971142 -0.149245
-1.757649 0.604650 1.731107 0.203955 -1.027524 -0.167499
-2.019742 0.440853 1.078856 0.249894 -1.033597 -0.165760
-1.562595 0.630793 0.156130 0.226278 -0.942777 -0.153006
-1.665914 0.655162 -0.048041 0.235671 -0.979876 -0.162018
-1.730724 0.020686 0.733475 0.332710 -0.975518 -0.155063
-1.469603 0.243228 0.061690 0.293562 -0.905792 -0.134360
-1.736952 0.687824 -0.573907 0.232205 -0.965182 -0.140731
-1.694386 0.752022 -0.519346 0.223344 -0.949670 -0.137926
-1.453092 0.166539 0.166098 0.299527 -0.880932 -0.129236
-1.465968 -0.086674 0.523712 0.330285 -0.878859 -0.130139
-1.522553 0.593272 -0.182027 0.220644 -0.865688 -0.124140
-1.397135 0.496755 -0.161054 0.215270 -0.822871 -0.104453
-1.389606 0.294403 0.164146 0.221034 -0.802893 -0.087896
-1.231859 0.285950 0.643095 0.206320 -0.770956 -0.073092
-1.175732 0.434655 0.673127 0.172550 -0.752837 -0.061635
-0.996971 0.608402 0.660767 0.133961 -0.728054 -0.059103
-1.049360 0.663350 1.122977 0.105417 -0.735468 -0.066512
-1.091912 0.609678 1.393884 0.077656 -0.713248 -0.066985
-1.161533 0.575630 1.945257 0.058614 -0.704635 -0.075621
-1.380379 0.494254 2.594529 0.037287 -0.689379 -0.075278
-1.314926 0.376081 3.174881 0.049382 -0.683945 -0.075844
-1.242958 0.001324 3.845018 0.117887 -0.688548 -0.072864
-1.146386 -0.052144 4.240829 0.142061 -0.700770 -0.072455
-1.143625 0.184605 4.530393 0.115215 -0.715955 -0.071829
-1.027865 -0.040444 5.195843 0.148326 -0.700148 -0.068613
-1.010505 -0.310565 5.610127 0.163589 -0.686465 -0.066233
-1.054945 -0.266220 5.518841 0.117744 -0.665195 -0.063103
-1.138485 -0.473154 5.299015 0.108453 -0.644869 -0.061192
-1.258005 -1.064325 5.523217 0.170645 -0.637173 -0.063533
-1.262864 -1.250754 5.478757 0.208700 -0.617281 -0.062487
-1.201887 -1.212854 4.715602 0.218495 -0.608385 -0.060579
-1.338898 -1.376385 4.207724 0.272996 -0.640958 -0.063953
-1.244644 -1.637814 3.999989 0.321295 -0.618438 -0.060799
-1.233998 -1.900408 3.749190 0.355990 -0.618206 -0.062706
-1.433309 -1.981336 3.433151 0.358154 -0.664843 -0.072960
-1.471652 -2.053291 3.174610 0.365104 -0.689178 -0.079678
-1.390662 -2.275998 3.137734 0.403250 -0.709619 -0.085928
-1.347640 -2.272785 3.088702 0.424014 -0.741506 -0.092188
-1.247192 -2.077594 2.849299 0.416731 -0.757288 -0.094096
-1.085864 -1.877666 2.640883 0.399671 -0.754737 -0.095570
-1.016830 -1.856603 2.825558 0.397100 -0.747566 -0.094940
-0.949535 -1.850202 3.005218 0.384984 -0.735784 -0.094304
-0.925663 -1.726492 2.990605 0.346704 -0.728971 -0.095817
-0.982517 -1.664526 2.996541 0.318985 -0.721958 -0.095514
-1.063088 -1.733488 3.178578 0.315345 -0.730330 -0.101214
-1.188570 -1.822265 3.329488 0.315538 -0.728905 -0.102591
-1.232341 -1.801278 3.273963 0.302080 -0.720573 -0.103816
-1.341205 -1.742560 3.288727 0.287956 -0.730637 -0.107806
-1.392502 -1.713489 3.288122 0.278491 -0.727691 -0.108712
-1.391647 -1.668408 3.277684 0.269131 -0.726391 -0.110641
-1.429016 -1.596985 3.258287 0.257141 -0.731432 -0.112438
-1.448674 -1.478654 3.147635 0.239159 -0.730069 -0.111364
-1.441237 -1.414077 3.070106 0.230433 -0.725190 -0.109342
-1.418580 -1.384355 3.002955 0.228222 -0.715844 -0.105988
-1.393449 -1.320773 2.820467 0.223170 -0.708025 -0.103308
-1.388053 -1.277619 2.680272 0.225083 -0.702895 -0.101026
-1.403576 -1.362350 2.611961 0.250204 -0.706770 -0.099792
-1.401350 -1.320970 2.444984 0.256534 -0.706505 -0.097542
-1.429065 -1.333699 2.309746 0.269461 -0.720206 -0.097945
-1.448337 -1.264883 2.225442 0.272915 -0.728033 -0.096878
-1.432243 -1.206109 2.085462 0.278505 -0.736003 -0.096301
-1.405224 -1.164961 2.034600 0.286883 -0.741755 -0.095968
-1.389068 -1.042914 1.916725 0.279773 -0.742732 -0.095235
-1.375024 -0.930525 1.798868 0.274698 -0.747156 -0.095707
-1.349758 -0.889717 1.759998 0.273512 -0.742531 -0.095139
-1.324473 -0.906188 1.776872 0.279793 -0.739149 -0.095805
-1.309927 -0.874453 1.728717 0.277566 -0.735650 -0.096152
-1.299659 -0.875396 1.670761 0.278778 -0.732250 -0.095967
-1.308643 -0.893115 1.644516 0.284068 -0.731370 -0.095893
-1.335290 -0.942615 1.634950 0.295967 -0.737838 -0.097266
-1.362137 -0.956451 1.592468 0.303281 -0.742067 -0.097330
-1.378519 -0.886637 1.501275 0.299962 -0.746270 -0.097916
-1.398548 -0.813198 1.388693 0.292983 -0.753722 -0.099385
-1.405028 -0.801997 1.371453 0.292801 -0.755294 -0.099357
-1.393015 -0.843781 1.442527 0.299205 -0.753207 -0.099081
-1.377509 -0.836286 1.477869 0.296983 -0.749954 -0.098174
-1.353058 -0.881554 1.521343 0.301776 -0.744348 -0.096824
-1.327088 -0.851654 1.416013 0.291723 -0.736053 -0.095078
-1.301913 -0.849998 1.600505 0.288241 -0.730887 -0.095225
-1.283681 -0.927041 1.750362 0.293538 -0.720279 -0.092668
-1.241863 -0.897817 1.949434 0.286187 -0.717932 -0.093187
-1.259790 -0.860203 2.124027 0.274831 -0.721878 -0.093281
-1.255695 -0.771258 2.289414 0.250232 -0.722138 -0.092644
-1.251722 -0.717136 2.525617 0.233766 -0.724191 -0.094181
-1.261188 -0.679705 2.781528 0.223908 -0.722622 -0.095502
-1.257059 -0.704677 3.064940 0.226372 -0.722467 -0.097611
-1.235313 -0.676775 3.327420 0.219447 -0.712909 -0.098216
-1.211717 -0.805447 3.666632 0.221814 -0.707873 -0.100834
-1.249497 -0.880795 3.995242 0.208462 -0.700300 -0.102997
-1.290767 -1.013553 4.423408 0.192963 -0.686727 -0.104796
-1.306464 -1.129979 4.906502 0.170967 -0.679695 -0.107944
-1.259700 -1.162898 5.423139 0.146963 -0.661353 -0.105075
-1.166276 -1.197445 6.028845 0.131915 -0.663451 -0.105281
-1.062967 -1.085545 6.662470 0.106862 -0.670617 -0.103974
-1.029014 -1.047081 7.472861 0.086746 -0.690494 -0.103285
-0.921519 -1.037930 8.253485 0.053426 -0.681957 -0.102218
-0.927491 -0.829420 9.005069 -0.017240 -0.659152 -0.101108
-1.020580 -0.938354 10.314698 -0.045563 -0.649874 -0.105196
-1.049688 -1.251369 11.900718 -0.041044 -0.597686 -0.100880
-1.073338 -1.450257 13.554790 -0.057176 -0.534548 -0.094297
-1.271350 -1.151078 14.281129 -0.151286 -0.488375 -0.088548
-1.323070 -0.673100 15.056380 -0.270242 -0.423395 -0.081202
-1.330773 -1.272926 16.991978 -0.234839 -0.394346 -0.084275
-1.264200 -1.981838 19.210611 -0.183016 -0.366566 -0.087661
-1.174288 -1.213570 19.687827 -0.366627 -0.360339 -0.084213
-1.264301 -1.089387 19.857897 -0.393512 -0.383996 -0.085633
-1.316242 -1.437342 20.972841 -0.356789 -0.408208 -0.086256
-1.227536 -2.373035 22.696668 -0.258371 -0.359561 -0.081070
-1.306251 -2.325167 22.651253 -0.328433 -0.342461 -0.082458
-1.580163 -2.477024 22.504725 -0.390548 -0.368917 -0.091781
-1.412432 -3.124247 22.786239 -0.366997 -0.357685 -0.097804
-1.112864 -3.666425 23.357232 -0.303970 -0.361589 -0.105123
-1.073652 -3.664750 23.240473 -0.274415 -0.434565 -0.112939
-1.017633 -3.330946 22.771483 -0.271547 -0.481862 -0.115843
-0.853103 -3.247308 22.578512 -0.261100 -0.469850 -0.115203
-0.774113 -3.356021 22.787835 -0.245182 -0.443950 -0.114142
-0.954646 -3.307151 22.766892 -0.255827 -0.465628 -0.117754
-0.999909 -3.145953 22.563856 -0.277991 -0.457041 -0.115108
-1.013041 -2.942152 22.656152 -0.288162 -0.467607 -0.121245
-1.067884 -2.944049 22.858091 -0.256236 -0.498905 -0.128735
-0.984741 -2.887846 23.108107 -0.241851 -0.518223 -0.131674
-0.893957 -2.713515 23.373437 -0.277180 -0.516065 -0.130838
-0.871666 -2.574679 23.705028 -0.335816 -0.513261 -0.129739
-0.879557 -2.598538 24.448301 -0.361399 -0.514426 -0.127872
-0.916284 -2.311939 25.135479 -0.388859 -0.533417 -0.127403
-1.028211 -1.866595 25.366065 -0.428277 -0.566263 -0.130799
-1.153580 -1.537915 25.596205 -0.468623 -0.582375 -0.137608
-1.260738 -1.482963 25.970016 -0.483268 -0.579236 -0.146263
-1.322631 -1.395540 26.254453 -0.491653 -0.575830 -0.152073
-1.313130 -1.345850 26.034320 -0.478953 -0.582172 -0.156080
-1.307860 -1.368380 25.878524 -0.449480 -0.598489 -0.160837
-1.289708 -1.357261 25.352717 -0.439959 -0.616091 -0.163495
-1.326358 -1.362273 24.782396 -0.430586 -0.652732 -0.167945
-1.287339 -1.432992 24.272176 -0.421160 -0.668291 -0.168066
-1.285907 -1.346486 23.421959 -0.436038 -0.685144 -0.169473
-1.345610 -1.024378 22.404570 -0.460481 -0.711174 -0.172241
-1.392158 -0.750448 21.394673 -0.436013 -0.739461 -0.173058
-1.364963 -0.694056 20.587988 -0.363399 -0.763412 -0.173247
-1.378668 -0.548930 19.452832 -0.326696 -0.778355 -0.173888
-1.411909 -0.333987 17.981452 -0.348900 -0.763404 -0.173392
-1.547252 -0.513069 17.075172 -0.328656 -0.758505 -0.176618
-1.512697 -0.980000 16.394508 -0.240978 -0.738896 -0.174699
-1.396548 -0.772585 15.181334 -0.221753 -0.729642 -0.166497
-1.383712 -0.172087 13.534054 -0.239789 -0.778460 -0.164863
-1.453685 -0.216444 12.778554 -0.183968 -0.829169 -0.164246
-1.382858 -0.665487 12.268502 -0.095850 -0.835778 -0.156942
-1.355471 -0.277244 10.864605 -0.138693 -0.839711 -0.149904
-1.486652 0.100593 9.696760 -0.146490 -0.893629 -0.151045
-1.395930 0.102694 8.746517 -0.090689 -0.888406 -0.141760
-1.294020 -0.121240 8.266256 -0.003844 -0.890961 -0.146108
-1.534015 -0.207148 7.579264 0.043773 -0.922364 -0.156539
-1.638585 -0.012265 6.153634 0.025480 -0.915304 -0.157835
-1.580622 0.149747 4.996087 0.034216 -0.910054 -0.159247
-1.580603 -0.013016 4.465901 0.082079 -0.913558 -0.155998
-1.510736 -0.225201 4.172376 0.169270 -0.920168 -0.153379
-1.601730 -0.139218 3.333692 0.191338 -0.942154 -0.151890
-1.615401 0.282925 2.052467 0.161387 -0.940702 -0.149233
-1.763084 0.451184 1.045159 0.163076 -0.953198 -0.153071
-1.721742 0.182990 0.773306 0.224691 -0.921733 -0.153758
-1.677405 -0.024847 0.712970 0.281866 -0.910981 -0.156941
-1.636161 -0.140965 0.468027 0.319583 -0.889785 -0.147049
-1.608358 0.098759 -0.215061 0.294751 -0.874727 -0.138801
-1.568503 0.140594 -0.301152 0.303289 -0.863851 -0.135910
-1.431636 -0.268814 -0.047685 0.366071 -0.825482 -0.128837
-1.172046 -0.354486 0.124253 0.380732 -0.758679 -0.118606
-1.260787 -0.051054 -0.309387 0.337194 -0.772182 -0.122064
-1.313413 -0.008879 -0.239514 0.329360 -0.758583 -0.118057
-1.209584 -0.327454 0.187839 0.363743 -0.726256 -0.110298
-1.248569 -0.294264 0.167895 0.334448 -0.712920 -0.100707
-1.286734 0.181613 -0.027896 0.235691 -0.710221 -0.095404
-1.285799 0.036560 0.347902 0.230012 -0.707745 -0.092993
-1.132496 -0.241712 0.958116 0.258877 -0.671286 -0.084570
-1.122752 0.017897 1.229869 0.221276 -0.688039 -0.087836
-1.240871 0.384019 1.161680 0.155973 -0.708061 -0.089837
-1.122657 0.139568 1.889461 0.155702 -0.674233 -0.087077
-1.123356 -0.291255 2.746019 0.173530 -0.654509 -0.087739
-1.153760 -0.376181 3.240981 0.140631 -0.636409 -0.086933
-1.301255 -0.397474 3.511518 0.110142 -0.664563 -0.090802
-1.265220 -0.639664 4.131499 0.137726 -0.681127 -0.092279
-1.185968 -0.806178 4.513305 0.148217 -0.691824 -0.091885
-1.192852 -0.570552 4.483011 0.114036 -0.699524 -0.091102
-1.223082 -0.368691 4.437173 0.088449 -0.703023 -0.091892
-1.153958 -0.627776 4.542308 0.128148 -0.678304 -0.090177
-1.148201 -0.986670 4.595009 0.193137 -0.656765 -0.090133
-1.265989 -1.040153 4.257666 0.208138 -0.652652 -0.092416
-1.428994 -1.190550 3.771548 0.234536 -0.649862 -0.096867
-1.376035 -1.528112 3.458946 0.283669 -0.608986 -0.096580
-1.528985 -1.838572 3.432359 0.331681 -0.615483 -0.103047
-1.500959 -2.072596 3.189782 0.368485 -0.614679 -0.106741
-1.502733 -1.957099 2.789196 0.361694 -0.622519 -0.106844
-1.569666 -1.871021 2.475222 0.364107 -0.678175 -0.113928
-1.554757 -1.766569 2.402381 0.366339 -0.709615 -0.113986
-1.372228 -1.712378 2.425153 0.370734 -0.716701 -0.111805
-1.349727 -1.618355 2.429410 0.362718 -0.740352 -0.113386
-1.264885 -1.506185 2.381246 0.346648 -0.735404 -0.110056
-1.143573 -1.471493 2.347414 0.339309 -0.719194 -0.105242
-1.111304 -1.577991 2.485915 0.351478 -0.712933 -0.102929
-1.134231 -1.657527 2.590529 0.358832 -0.708696 -0.102433
-1.092894 -1.639396 2.543223 0.352523 -0.697685 -0.102394
-1.130386 -1.628169 2.533891 0.347980 -0.698965 -0.103667
-1.206759 -1.560390 2.504467 0.336089 -0.703589 -0.104360
-1.293527 -1.482791 2.445918 0.323273 -0.709965 -0.105441
-1.323540 -1.350078 2.359265 0.303235 -0.702180 -0.103442
-1.408554 -1.257513 2.304618 0.290377 -0.713028 -0.105350
-1.442489 -1.172701 2.217183 0.279008 -0.711361 -0.104447
-1.421917 -1.140213 2.169155 0.275820 -0.704299 -0.103926
-1.407601 -1.177063 2.168008 0.284391 -0.698792 -0.103523
-1.404587 -1.191541 2.131601 0.289561 -0.693800 -0.102436
-1.404334 -1.269855 2.141262 0.303677 -0.693712 -0.102508
-1.384411 -1.273079 2.093861 0.306929 -0.685942 -0.100405
-1.355887 -1.290736 2.082416 0.312525 -0.685331 -0.100618
-1.351095 -1.277072 2.056652 0.314453 -0.686415 -0.100510
-1.370801 -1.223623 2.014111 0.310154 -0.690874 -0.100069
-1.414373 -1.122144 1.933808 0.299947 -0.702666 -0.101597
-1.429498 -1.065067 1.856454 0.294942 -0.706914 -0.101141
-1.456905 -1.040989 1.866548 0.295746 -0.716340 -0.101919
-1.413211 -0.992577 1.804976 0.290907 -0.707943 -0.099108
-1.360662 -0.994778 1.777319 0.292825 -0.700798 -0.097441
-1.327244 -1.002716 1.752630 0.295866 -0.693923 -0.095610
-1.313846 -1.048729 1.763288 0.305324 -0.692795 -0.095563
-1.303886 -1.067129 1.717305 0.310500 -0.691309 -0.095726
-1.318328 -1.060694 1.677721 0.313110 -0.692847 -0.096532
-1.321619 -1.058207 1.660677 0.315861 -0.693716 -0.097573
-1.323222 -1.011251 1.571345 0.310373 -0.692346 -0.098061
-1.352136 -0.948217 1.501272 0.304261 -0.698034 -0.099389
-1.395157 -0.870928 1.408646 0.296025 -0.704379 -0.100215
-1.407547 -0.885611 1.416672 0.301246 -0.707722 -0.100453
-1.381763 -0.856745 1.364762 0.300623 -0.704370 -0.099362
-1.367966 -0.824557 1.328091 0.299336 -0.705862 -0.099510
-1.321746 -0.829475 1.303708 0.302056 -0.698993 -0.098126
-1.293857 -0.897904 1.351679 0.312683 -0.695597 -0.098176
-1.282711 -0.922792 1.385634 0.316512 -0.691130 -0.097961
-1.300847 -0.921653 1.377978 0.314899 -0.693255 -0.098859
-1.334265 -0.934793 1.408373 0.315370 -0.697961 -0.100398
-1.331348 -0.920204 1.421566 0.310734 -0.693936 -0.100824
-1.358921 -0.919777 1.454253 0.309037 -0.697287 -0.102373
-1.388605 -0.890403 1.488699 0.303149 -0.699715 -0.103163
-1.384952 -0.879247 1.518540 0.300310 -0.697791 -0.102605
-1.376865 -0.868547 1.545557 0.297299 -0.694823 -0.101865
-1.362453 -0.866178 1.586163 0.296335 -0.692257 -0.101020
-1.330869 -0.876757 1.610468 0.296779 -0.687577 -0.100057
