fx fy fz tx ty tz 
-0.866691 -0.044883 -1.126117 -0.105973 -0.769800 -0.048752
-0.949980 0.239888 -1.813408 -0.166347 -0.810059 -0.066549
-0.944674 0.903085 -1.514796 -0.271630 -0.811849 -0.072030
-1.062400 -0.440308 0.208795 -0.098042 -0.827313 -0.073066
-1.150400 -0.685207 0.269602 -0.131850 -0.904212 -0.090024
-1.285431 0.595777 -0.533424 -0.412849 -0.970707 -0.103402
-0.930360 -0.105244 0.124130 -0.395981 -0.937013 -0.095259
-1.240653 -0.124858 0.291650 -0.444818 -1.055642 -0.122565
-1.247776 0.036296 0.100628 -0.484668 -1.093816 -0.139096
-1.235017 0.928642 -0.304763 -0.619239 -1.141642 -0.172725
-1.272140 0.985995 -0.091793 -0.628268 -1.204352 -0.205995
-1.444244 0.684428 0.975822 -0.578739 -1.190362 -0.212774
-1.141902 0.894000 -0.029039 -0.657000 -1.240298 -0.264234
-1.375778 0.981482 0.609442 -0.659271 -1.226451 -0.277675
-1.487483 0.812687 0.171313 -0.666886 -1.282672 -0.306713
-1.684508 0.766288 0.493093 -0.667817 -1.314057 -0.322458
-1.381418 0.761011 -0.016020 -0.675610 -1.286909 -0.331736
-1.387826 1.022513 -0.375242 -0.708261 -1.311538 -0.344543
-1.288873 0.712397 0.486796 -0.652147 -1.269289 -0.337926
-1.465999 1.316134 0.539495 -0.725471 -1.321564 -0.353408
-1.377598 1.396997 -0.598579 -0.770108 -1.361049 -0.371317
-1.362024 1.025171 0.293924 -0.709477 -1.321018 -0.359870
-1.477989 1.034887 0.689635 -0.712048 -1.332172 -0.356640
-1.504882 1.130236 -0.116947 -0.757218 -1.359760 -0.362811
-1.445660 0.934058 -0.093035 -0.732255 -1.345040 -0.357203
-1.506995 0.741961 0.631365 -0.683712 -1.302022 -0.340321
-1.505909 0.623191 0.227618 -0.683617 -1.342020 -0.355576
-1.280537 0.333086 0.805223 -0.631012 -1.288730 -0.343081
-1.454239 0.895305 0.393938 -0.730688 -1.343670 -0.350908
-1.168653 0.377140 1.078605 -0.658132 -1.331271 -0.340375
-1.290763 -0.100710 1.505211 -0.594127 -1.351219 -0.324199
-1.166267 -0.036046 1.442046 -0.622937 -1.367376 -0.316854
-1.193941 -0.798833 1.544083 -0.523947 -1.357705 -0.299011
-1.313771 -0.790821 1.376540 -0.503894 -1.386245 -0.301311
-1.356126 -1.167769 1.689767 -0.398151 -1.332719 -0.280874
-1.272267 -1.536879 1.366698 -0.275390 -1.298051 -0.274015
-1.483521 -1.451451 0.972973 -0.230733 -1.305949 -0.268826
-1.492875 -1.182353 -0.129590 -0.212891 -1.289351 -0.261790
-1.503174 -0.720905 -0.434834 -0.205388 -1.258210 -0.248746
-1.386674 -0.593695 -0.895924 -0.142050 -1.221885 -0.233626
-1.379406 -0.859197 -1.227840 -0.040359 -1.230195 -0.220301
-1.654251 -0.235664 -1.454936 -0.061156 -1.264512 -0.219180
-1.308967 0.262779 -1.512822 -0.080659 -1.208000 -0.214406
-1.664111 -0.037162 -1.611617 -0.016111 -1.233443 -0.215752
-1.405392 0.064886 -2.004381 -0.039228 -1.187272 -0.217443
-1.811391 0.616144 -2.376487 -0.111586 -1.185356 -0.209227
-1.584780 0.237905 -2.322405 -0.048703 -1.118340 -0.188266
-1.565017 0.468003 -2.415315 -0.076862 -1.077376 -0.174490
-1.450769 0.984888 -3.074952 -0.114804 -1.016963 -0.169870
-1.230304 1.224095 -3.366178 -0.126651 -0.961618 -0.173362
-1.206859 0.832230 -2.442835 -0.030646 -0.912053 -0.170647
-1.397558 0.208221 -2.474701 0.068031 -0.930089 -0.182979
-1.634870 0.893786 -2.419073 0.004745 -0.936811 -0.192290
-1.445487 1.311412 -3.391257 -0.059311 -0.891269 -0.192454
-1.322396 1.410403 -3.105227 -0.062503 -0.844523 -0.182877
-1.475291 1.057886 -2.937810 -0.024319 -0.847168 -0.174746
-1.323743 0.788976 -2.528204 0.005994 -0.796437 -0.162587
-1.522918 0.811360 -1.983589 -0.007848 -0.821777 -0.174743
-1.746151 0.950181 -2.370479 -0.077254 -0.905668 -0.206948
-1.801619 0.545281 -1.676839 -0.105105 -0.929529 -0.225556
-1.919987 -0.225972 -0.564751 -0.049325 -0.950700 -0.237868
-2.020947 -0.286104 -0.697507 -0.152110 -1.092392 -0.304800
-2.340582 0.682671 -0.747542 -0.326195 -1.215737 -0.347800
-1.949628 0.235345 -0.603202 -0.355098 -1.289589 -0.384827
-2.663422 -0.191376 0.327942 -0.340144 -1.459343 -0.403073
-1.739213 0.300150 2.294186 -0.408556 -1.418253 -0.385885
-1.175354 1.595539 6.256076 -0.549569 -1.644733 -0.387146
-0.267168 1.740410 13.318509 -0.498897 -1.751768 -0.387808
-0.631854 1.164254 19.927313 -0.393147 -1.837423 -0.385280
-0.932504 0.825043 26.926823 -0.382651 -1.864568 -0.397286
-2.114356 2.008407 35.033624 -0.537827 -1.997352 -0.434266
-0.729024 2.153340 41.825690 -0.476756 -1.652815 -0.370097
-0.898845 2.645215 45.521529 -0.414670 -1.725272 -0.357769
-1.147720 1.517319 46.484647 -0.296855 -1.733614 -0.332358
-1.257455 0.519705 43.612535 -0.251968 -1.579819 -0.291839
-1.877152 -0.386484 38.081383 -0.160598 -1.571307 -0.301111
-2.128898 0.299783 29.368769 -0.230425 -1.377730 -0.260767
-1.024838 0.954258 21.915015 -0.247870 -0.934346 -0.190772
-2.069606 0.342362 14.449998 -0.236591 -0.946178 -0.193913
-1.282256 -0.195108 8.506328 -0.154550 -0.695167 -0.141106
-1.896858 0.454263 4.694569 -0.236435 -0.778170 -0.150667
-1.725177 0.586219 2.252288 -0.160362 -0.757708 -0.147288
-0.581005 1.029015 0.024723 -0.126010 -0.554986 -0.116495
-0.796252 0.935863 -0.916768 -0.051466 -0.597246 -0.119563
-1.270306 1.426335 -2.458247 -0.095474 -0.695692 -0.127165
-1.216126 1.124763 -2.154917 -0.019285 -0.648442 -0.092105
-0.960716 0.928023 -2.845870 -0.006304 -0.557843 -0.057662
-0.653292 1.066734 -3.297855 -0.038054 -0.515768 -0.043873
-0.396942 1.310978 -2.670313 -0.050130 -0.399545 -0.007983
-0.580102 1.382556 -3.669157 -0.060427 -0.479162 -0.024616
-0.652391 0.816162 -2.832247 0.054240 -0.468376 -0.013489
-0.535342 0.840669 -2.528094 0.096387 -0.396286 0.006711
-0.834453 1.614750 -3.185112 0.003198 -0.524253 -0.025520
-0.459675 1.352271 -3.579877 0.021711 -0.456429 -0.019138
-0.337917 1.254680 -3.082255 0.033383 -0.455263 -0.017874
-1.063983 1.553707 -3.144737 -0.048741 -0.575550 -0.029830
-0.998235 1.314800 -3.420141 -0.044227 -0.574631 -0.027185
-0.461740 1.169273 -3.628750 -0.043795 -0.522557 -0.028071
-0.646621 0.695291 -2.718896 0.045241 -0.532776 -0.027378
-0.780677 0.843295 -2.466356 0.044322 -0.586608 -0.047470
-0.565092 1.072624 -2.692354 0.036811 -0.604555 -0.069015
-0.682803 1.121282 -2.458304 0.060002 -0.628312 -0.078080
-0.459473 1.772392 -3.464313 -0.064656 -0.646048 -0.104423
-0.254982 1.656632 -2.568675 -0.048353 -0.569203 -0.092250
-0.684957 1.578534 -2.996221 -0.098096 -0.693596 -0.125549
-0.916655 2.203345 -2.541343 -0.221792 -0.725975 -0.133169
-0.804600 0.957930 -2.243569 -0.155151 -0.739239 -0.141477
-0.940556 1.486364 -2.125753 -0.288984 -0.770400 -0.152850
-1.056684 2.059890 -2.236686 -0.426563 -0.827502 -0.185777
-1.112427 2.024658 -1.610408 -0.446869 -0.831364 -0.200910
-1.097354 1.583456 -0.983892 -0.388151 -0.894375 -0.227724
-1.455065 2.211050 -1.626985 -0.503528 -0.952890 -0.247514
-0.886696 2.906418 -1.665382 -0.610740 -0.867571 -0.253718
-1.054184 2.224762 -1.458926 -0.569374 -0.910047 -0.276590
-0.976210 1.369623 -0.857906 -0.516016 -0.919084 -0.293564
-1.742158 1.156392 -0.983419 -0.522299 -1.056732 -0.309916
-1.867683 1.188371 -1.474455 -0.564822 -1.169379 -0.332640
-1.673942 1.215394 -0.539360 -0.544778 -1.144173 -0.320398
-1.633527 -0.208337 0.837227 -0.316246 -1.193551 -0.331766
-1.954247 0.620852 0.042670 -0.466991 -1.335436 -0.377469
-1.694041 1.185865 -0.508829 -0.525369 -1.306398 -0.373470
-2.061777 0.731252 -0.125210 -0.525294 -1.440401 -0.397350
-2.157593 0.897760 0.520847 -0.552869 -1.440908 -0.377339
-1.577075 1.154533 -0.084271 -0.662493 -1.394626 -0.374887
-2.092468 1.213316 1.232088 -0.722959 -1.553037 -0.382601
-1.663002 0.469928 3.666127 -0.663041 -1.592264 -0.385936
-1.680470 -0.560193 7.481003 -0.616049 -1.729777 -0.401346
-1.731323 -0.415823 12.047116 -0.700359 -1.837111 -0.428318
-1.763309 0.071522 17.184548 -0.695344 -1.812360 -0.413023
-1.661649 0.747115 20.229340 -0.754148 -1.864076 -0.427758
-1.242048 0.660719 24.433764 -0.707485 -1.779345 -0.397704
-1.273366 0.322322 26.182255 -0.765162 -1.816859 -0.390875
-1.161733 -0.969468 26.678065 -0.740323 -1.818335 -0.387433
-1.418344 -2.861859 27.088334 -0.542074 -1.728359 -0.350572
-1.835984 -2.664550 24.440068 -0.532771 -1.685252 -0.339870
-1.838976 -2.377386 21.123777 -0.481498 -1.542636 -0.300618
-2.154532 -2.967224 18.476370 -0.356281 -1.466521 -0.278953
-1.893633 -2.921244 16.311442 -0.377741 -1.320970 -0.249680
-2.136037 -2.994679 13.959714 -0.413597 -1.355090 -0.260508
-2.345024 -3.535147 12.083344 -0.412277 -1.278607 -0.255344
-2.369077 -3.907677 11.291646 -0.358189 -1.178397 -0.245064
-2.444204 -3.652008 10.360936 -0.350599 -1.089177 -0.209978
-2.491843 -3.396064 9.983496 -0.381615 -1.072060 -0.192690
-2.315079 -3.297744 10.468588 -0.463217 -1.050092 -0.178570
-2.299696 -3.754774 11.809832 -0.460107 -1.085620 -0.181034
-2.073883 -3.895694 13.095476 -0.528985 -1.107688 -0.187363
-1.792778 -3.705808 13.956823 -0.683400 -1.156057 -0.207464
-1.667849 -3.674479 14.882317 -0.820499 -1.197379 -0.220855
-1.606112 -3.970602 16.278394 -0.867452 -1.202275 -0.220392
-1.485485 -4.340851 17.699676 -0.850154 -1.179517 -0.208726
-1.537079 -4.055255 17.937293 -0.912782 -1.197830 -0.204018
-1.229611 -3.710348 18.052069 -0.968114 -1.137185 -0.188664
-1.304392 -4.076716 18.673982 -0.919429 -1.145149 -0.183619
-1.333853 -4.009204 18.596808 -0.929926 -1.139862 -0.181994
-1.138209 -3.677934 18.270388 -0.972896 -1.106247 -0.184880
-1.365939 -3.592580 17.801146 -0.982657 -1.148619 -0.200470
-1.215220 -3.544112 17.595682 -0.974637 -1.113044 -0.202217
-1.375036 -3.345088 17.329193 -0.984137 -1.133524 -0.210631
-1.464486 -3.258852 17.232743 -0.966338 -1.142155 -0.214909
-1.560937 -3.116454 17.457991 -0.955170 -1.137344 -0.212482
-1.579189 -2.799843 17.706517 -0.992082 -1.134538 -0.211903
-1.448966 -2.715370 18.380269 -1.012273 -1.121932 -0.211764
-1.508556 -2.966531 19.515497 -1.001013 -1.130393 -0.214208
-1.533393 -2.931306 20.702679 -1.021408 -1.134994 -0.218014
-1.560575 -2.736310 21.785956 -1.056864 -1.126074 -0.219765
-1.581341 -2.562174 23.011593 -1.067075 -1.121940 -0.216807
-1.384785 -2.417799 24.592851 -1.066308 -1.094855 -0.205070
-1.306577 -2.402017 26.239741 -1.090311 -1.111897 -0.202312
-1.425719 -2.396141 27.992385 -1.108347 -1.130358 -0.203064
-1.456434 -2.253457 28.823336 -1.119845 -1.114060 -0.201640
-1.555240 -2.190917 30.213240 -1.089867 -1.072799 -0.193138
-1.571320 -2.096561 31.118395 -1.078015 -1.055596 -0.193356
-1.639659 -1.592988 31.497962 -1.146989 -1.048650 -0.192695
-1.653215 -1.687260 32.326200 -1.133482 -1.020321 -0.182740
-1.518104 -2.159459 33.378466 -1.082891 -0.994409 -0.177575
-2.006452 -2.521954 34.359046 -1.055108 -1.049053 -0.178371
-1.366222 -2.306495 34.758500 -1.105833 -0.934953 -0.169158
-1.832144 -1.843997 34.828153 -1.188403 -0.970004 -0.173881
-1.564216 -2.606349 36.501936 -1.084069 -0.868168 -0.158502
-2.439043 -3.134754 37.626278 -1.045630 -0.978111 -0.174038
-2.361605 -2.292719 37.129307 -1.210849 -0.979205 -0.187370
-2.512709 -2.665130 37.892195 -1.181819 -0.922135 -0.169137
-2.558714 -4.124703 40.036472 -1.003604 -0.912811 -0.168362
-2.871211 -3.794350 39.388194 -1.125365 -0.978979 -0.186510
-2.337296 -3.257071 38.982859 -1.242375 -0.873860 -0.181639
-3.123640 -4.029129 39.802765 -1.124886 -0.955924 -0.180734
-2.920278 -4.739099 40.879890 -0.988408 -0.925858 -0.175875
-2.872949 -4.402928 40.400194 -1.017398 -0.896427 -0.161066
-2.376928 -3.562499 39.348501 -1.148793 -0.908555 -0.176691
-2.993448 -3.560665 38.876405 -1.159817 -1.018422 -0.185685
-2.641867 -4.495753 39.945998 -1.002490 -0.913672 -0.158807
-2.428252 -4.916067 40.247077 -0.935677 -0.872025 -0.145331
-2.967860 -4.272282 39.291994 -1.036659 -1.025661 -0.165649
-2.210861 -3.642177 38.493471 -1.113502 -0.964229 -0.155470
-2.166900 -4.068929 38.926319 -1.017168 -0.967561 -0.137396
-1.925512 -4.546408 39.594861 -0.919504 -0.955566 -0.127085
-1.875042 -4.343670 39.389942 -0.939607 -1.019783 -0.141362
-2.169425 -3.530260 38.438915 -1.034134 -1.063658 -0.141796
-1.370174 -3.363075 38.350262 -1.015730 -0.957842 -0.133216
-1.815942 -3.535104 38.763709 -0.950567 -1.070482 -0.144281
-0.916582 -3.119833 38.205835 -0.986867 -0.985475 -0.127404
-0.989105 -2.888161 37.841768 -1.030444 -1.039559 -0.139357
-1.552705 -2.760611 37.570448 -1.065588 -1.196104 -0.160763
-1.732244 -2.950798 37.830135 -1.021826 -1.240666 -0.158553
-0.914301 -3.187446 38.184609 -0.947034 -1.110428 -0.138153
-1.521537 -2.550478 37.843440 -1.007413 -1.275552 -0.166464
-1.663910 -2.188415 37.603903 -1.021277 -1.314997 -0.173883
-0.374851 -2.123357 37.756003 -0.986819 -1.072451 -0.137735
-1.334795 -2.069209 38.041818 -0.990859 -1.293760 -0.174593
-1.304507 -2.030810 38.130827 -0.987320 -1.303147 -0.170726
-0.232920 -1.948310 38.167789 -0.980713 -1.121745 -0.137748
-0.366629 -1.409728 38.075815 -1.048673 -1.239644 -0.162364
-0.994829 -1.558969 38.595386 -1.005804 -1.388889 -0.178877
-0.170485 -1.808338 39.169324 -0.936542 -1.185906 -0.142742
-0.703911 -1.421021 39.134889 -0.997157 -1.310562 -0.175214
-0.547582 -0.928485 38.752599 -1.063446 -1.272546 -0.171928
-0.707416 -1.185479 39.094107 -1.014909 -1.280026 -0.168276
-0.654467 -1.441551 39.929289 -0.963948 -1.273017 -0.163603
-0.845167 -1.509914 40.012523 -0.954843 -1.311663 -0.166091
-0.224774 -1.368196 39.908456 -0.979960 -1.219876 -0.158207
-0.910394 -1.450789 40.183107 -0.974618 -1.317942 -0.170121
-0.953077 -1.715714 40.616794 -0.934693 -1.267603 -0.159578
-0.514785 -1.960281 41.059013 -0.913077 -1.165972 -0.152497
-0.757703 -1.895057 41.145403 -0.949586 -1.173203 -0.151189
-1.077094 -1.885108 41.231704 -0.987157 -1.258383 -0.169982
-1.027815 -2.039226 41.431790 -0.960193 -1.213010 -0.155040
-1.177059 -2.148454 41.809235 -0.913072 -1.223467 -0.156471
-0.997939 -2.146224 41.990579 -0.876677 -1.175343 -0.152393
-1.239291 -2.005617 41.838005 -0.885720 -1.187909 -0.156400
-1.265015 -1.912721 41.451895 -0.909222 -1.174126 -0.162794
-1.577384 -2.233536 41.621053 -0.870998 -1.159139 -0.158498
-1.637754 -2.591524 41.710553 -0.826835 -1.123550 -0.152796
-1.798094 -2.667808 41.574665 -0.821008 -1.143520 -0.159212
-1.697511 -2.568309 41.222771 -0.828395 -1.109250 -0.151280
-1.572328 -2.652975 41.087309 -0.812535 -1.103259 -0.152928
-1.584363 -2.695111 40.935769 -0.802510 -1.098652 -0.149474
-1.533876 -2.718666 40.858198 -0.803900 -1.081363 -0.147317
-1.815566 -2.791923 40.634520 -0.808521 -1.117140 -0.152710
-1.820973 -2.767838 40.524882 -0.815416 -1.107733 -0.151043
-1.814818 -2.756218 40.488179 -0.812698 -1.104834 -0.149373
-1.613480 -2.715624 40.432865 -0.817256 -1.087813 -0.148129
-1.682469 -2.701182 40.488137 -0.816269 -1.122009 -0.151880
-1.541432 -2.704880 40.497932 -0.812276 -1.108040 -0.146953
-1.597962 -2.738609 40.514404 -0.808500 -1.139298 -0.150373
-1.655522 -2.793869 40.658489 -0.796066 -1.165186 -0.149784
-1.438830 -2.773945 40.759722 -0.788832 -1.147434 -0.143727
-1.291363 -2.618464 40.758134 -0.799270 -1.139985 -0.140930
-1.225824 -2.471258 40.761679 -0.813446 -1.147046 -0.143053
-1.306205 -2.450833 40.912115 -0.823854 -1.154395 -0.142713
-1.342832 -2.499203 41.091583 -0.844789 -1.156328 -0.144772
-1.447210 -2.523190 41.180701 -0.870882 -1.172380 -0.149138
-1.415237 -2.588683 41.293097 -0.878473 -1.168416 -0.149613
-1.391529 -2.583553 41.365276 -0.882414 -1.164657 -0.150700
-1.401327 -2.566693 41.290036 -0.886185 -1.160226 -0.152424
-1.543049 -2.447995 41.055974 -0.903087 -1.168155 -0.157022
-1.607121 -2.496204 40.914696 -0.899005 -1.154041 -0.158169
-1.658710 -2.501276 40.612625 -0.906857 -1.142482 -0.160243
-1.732812 -2.237305 39.742505 -0.953339 -1.144081 -0.167633
-1.645570 -2.090686 39.271228 -0.959930 -1.120364 -0.167138
-1.539309 -2.013894 38.700925 -0.924460 -1.086855 -0.165793
-1.553532 -1.939087 38.009280 -0.884386 -1.075750 -0.164191
-1.720249 -1.773248 36.751440 -0.883282 -1.099241 -0.168294
-1.546127 -1.694037 35.370295 -0.861503 -1.039194 -0.157235
-1.466667 -1.758334 33.964627 -0.818479 -0.999375 -0.151873
-1.406472 -1.791790 32.625723 -0.792883 -0.995023 -0.153984
-1.440890 -1.641787 31.338390 -0.800539 -1.010145 -0.159345
-1.337269 -1.449613 29.868536 -0.793431 -0.975931 -0.158531
-1.284697 -1.384704 28.926803 -0.767176 -0.955173 -0.163412
-1.492135 -1.332692 27.823465 -0.742492 -0.972045 -0.173532
-1.403494 -1.149327 26.568507 -0.733528 -0.920314 -0.177041
-1.395607 -1.101026 25.402052 -0.699048 -0.863367 -0.180607
-1.566563 -1.108742 24.281405 -0.658091 -0.873425 -0.194419
-1.581685 -0.859276 22.487205 -0.631007 -0.858944 -0.198396
-1.494761 -0.395695 20.263322 -0.631919 -0.833083 -0.194180
-1.280646 -0.900609 19.108931 -0.486179 -0.749558 -0.166914
-1.258694 -0.758274 16.156838 -0.486332 -0.810383 -0.179650
-0.893359 -0.247479 13.588292 -0.508798 -0.734111 -0.158102
-0.872895 -0.743898 10.800838 -0.414197 -0.802174 -0.167329
-0.980363 -0.802955 9.221173 -0.341568 -0.811228 -0.149731
-0.768698 -0.519275 5.726414 -0.356694 -0.854836 -0.155205
-0.569634 -0.197734 3.648710 -0.318014 -0.851390 -0.147239
-1.142223 -0.076921 1.594014 -0.269270 -0.928205 -0.150793
-0.907649 0.617764 -1.060827 -0.299543 -0.952628 -0.173559
-1.229487 0.319842 -0.621933 -0.123269 -0.897637 -0.154741
-1.518843 0.323171 -1.233850 -0.047169 -0.984618 -0.178826
-1.485129 0.118465 -0.664125 0.038311 -0.993341 -0.190016
-1.679443 0.145243 -0.960649 0.045957 -1.065039 -0.218487
-1.578594 -0.253599 -0.905779 0.094968 -1.067181 -0.222613
-2.027625 -0.561665 -0.361384 0.113951 -1.205538 -0.252035
-1.512549 0.158931 -0.100112 -0.004061 -1.192854 -0.241265
-0.812622 0.950815 1.081917 -0.177808 -1.267268 -0.239324
-1.149904 0.626884 4.570173 -0.271646 -1.520187 -0.255925
-0.538375 -0.254318 7.575800 -0.355540 -1.630500 -0.281995
-0.364536 -0.008623 9.779767 -0.494411 -1.641950 -0.288538
-0.587861 0.149478 11.843002 -0.435535 -1.676990 -0.305312
-1.077840 0.234063 12.542039 -0.337039 -1.634060 -0.300171
-1.504245 0.213766 12.698221 -0.292694 -1.582968 -0.297256
-2.013177 -0.270350 11.366812 -0.263203 -1.611841 -0.305439
-1.718855 -0.898960 9.515047 -0.185706 -1.489187 -0.277674
-1.184481 -1.327938 7.894547 -0.104261 -1.369346 -0.259847
-1.641352 -0.805693 4.778749 -0.165347 -1.406784 -0.264463
-1.647778 -0.303156 1.426453 -0.192537 -1.328942 -0.259486
-2.159328 -0.825480 1.482355 -0.065029 -1.377932 -0.262267
-2.416267 -0.936864 -0.004299 -0.000880 -1.416422 -0.275183
-1.996046 0.150958 -1.512171 -0.077402 -1.347359 -0.277318
-2.767842 0.374339 -1.576573 -0.029603 -1.482032 -0.297426
-2.422559 -0.620945 -1.777544 0.134796 -1.436817 -0.288639
-2.747709 -0.333198 -1.101749 0.156876 -1.458417 -0.281282
-2.713330 0.030419 -2.751039 0.054465 -1.496732 -0.296473
-2.183729 0.354335 -2.491269 0.023436 -1.369383 -0.272619
-1.781464 -0.048568 -2.481080 0.058765 -1.300542 -0.265209
-1.986264 0.125703 -2.604027 0.033796 -1.349126 -0.277156
-2.272837 0.268644 -2.312685 0.038861 -1.384514 -0.283713
-2.402054 -0.236290 -2.817192 0.105781 -1.440162 -0.302052
-2.583166 0.114832 -2.561831 0.084360 -1.505200 -0.323573
-2.347107 0.542302 -2.702157 0.036948 -1.444614 -0.316576
-2.300383 -0.361915 -2.115199 0.131901 -1.452159 -0.323593
-2.887537 -0.054787 -3.042375 0.061305 -1.559534 -0.338854
-2.575041 0.591234 -2.726800 -0.018706 -1.441597 -0.310361
-2.323355 -0.128261 -2.457301 0.062904 -1.425804 -0.310636
-2.476669 0.101779 -2.393397 0.048779 -1.406074 -0.300493
-1.856231 0.195534 -2.810743 0.061023 -1.322529 -0.294057
-2.247000 0.210791 -2.629616 0.075476 -1.358184 -0.290920
-2.626550 0.245233 -2.464285 0.094630 -1.415569 -0.287644
-2.336151 0.095365 -3.008377 0.094391 -1.395327 -0.287230
-2.349144 0.423792 -2.505765 0.062316 -1.328922 -0.259637
-2.444893 0.611143 -2.999952 -0.014678 -1.356018 -0.263207
-2.582182 -0.136225 -2.242060 0.074359 -1.317703 -0.239776
-2.781681 -0.079019 -2.456959 0.068630 -1.346286 -0.240183
-2.607897 0.275210 -2.422335 0.010096 -1.298394 -0.237559
-2.321061 -0.327203 -2.384181 0.151296 -1.246578 -0.228820
-2.169470 -0.665031 -1.694985 0.219564 -1.222930 -0.229334
-2.159075 0.145996 -2.470928 0.101525 -1.254322 -0.242231
-2.325156 0.597446 -3.214083 0.033997 -1.280747 -0.249965
-2.512572 0.812435 -3.073814 -0.005836 -1.256329 -0.230386
-2.389952 0.270800 -2.780525 0.021454 -1.174648 -0.208893
-2.408254 0.126712 -1.991457 0.075380 -1.139085 -0.186848
-2.359947 0.138597 -2.933956 0.026381 -1.157709 -0.189285
-2.506930 -0.101780 -2.758619 0.112119 -1.154003 -0.169769
-2.294441 -0.178561 -2.402605 0.161620 -1.120513 -0.162798
-2.269226 -0.301555 -2.542351 0.178508 -1.111547 -0.160813
-2.443939 0.910135 -3.216664 0.016286 -1.124101 -0.166999
-1.987564 0.914496 -3.382019 0.007843 -1.016923 -0.146640
-1.962855 0.231023 -2.484616 0.093880 -0.969023 -0.135428
-2.339685 0.516254 -2.559903 0.047908 -1.025683 -0.142260
-2.073186 0.195560 -2.697849 0.094571 -0.957675 -0.130241
-2.229551 0.228989 -2.834304 0.114630 -0.994149 -0.138436
-2.611301 0.404761 -3.203221 0.093871 -1.055376 -0.145211
-2.291423 -0.041247 -1.425349 0.223510 -0.945355 -0.112465
-2.759717 0.728818 -3.507234 0.076172 -1.093147 -0.155721
-2.538836 1.652165 -4.108961 -0.028781 -1.055986 -0.147679
-1.825833 1.082740 -2.051923 0.059444 -0.836587 -0.110611
-2.339637 -2.044201 -0.089767 0.479351 -0.932362 -0.121373
-2.715799 -0.160745 -3.111538 0.164194 -1.121494 -0.184512
-1.681341 4.007990 -5.084641 -0.388852 -0.895366 -0.157222
-1.533234 -0.831020 -1.130046 0.325929 -0.884807 -0.160202
-2.762004 -3.122875 -0.157607 0.654794 -1.086940 -0.185836
-1.979381 0.896889 -2.887820 0.102522 -0.998513 -0.192710
-1.843368 2.192131 -3.900537 -0.081914 -0.984264 -0.195817
-2.384347 0.034952 -1.428603 0.215263 -1.050231 -0.184790
-2.092171 -0.523291 -0.796817 0.272479 -1.017198 -0.186108
-2.045724 3.322089 -3.695409 -0.309613 -1.049580 -0.222404
-1.503145 3.454298 -4.326382 -0.372373 -0.975932 -0.220435
-1.835680 0.390086 -1.389370 0.070096 -0.982309 -0.197111
-2.403744 0.339430 -0.751549 0.083363 -1.039710 -0.194103
-1.531000 2.197490 -2.663701 -0.167306 -0.921989 -0.189065
-1.171590 1.036760 -2.030052 0.020222 -0.854738 -0.170118
-2.339878 0.138510 -1.058053 0.169120 -1.059288 -0.206965
-1.735767 1.632128 -2.440163 -0.040874 -0.952465 -0.216712
-1.103760 2.694828 -3.600188 -0.187001 -0.881214 -0.224359
-1.779844 0.957955 -1.471229 0.073706 -0.930390 -0.206405
-2.139833 1.511759 -1.822919 -0.016428 -0.972072 -0.201917
-1.444466 2.301294 -3.319202 -0.167728 -0.884007 -0.196579
-1.492499 1.061956 -2.028202 0.000709 -0.861341 -0.181145
-2.073048 1.242021 -1.984856 -0.021517 -0.905660 -0.176895
-1.261381 1.533774 -2.639241 -0.080632 -0.806965 -0.179660
-1.463447 1.705840 -1.929398 -0.090539 -0.814130 -0.177676
-1.721514 1.882608 -2.497075 -0.119452 -0.865220 -0.182657
-1.390378 2.382227 -2.591464 -0.173902 -0.810330 -0.172638
-1.374668 1.348458 -1.952069 -0.018781 -0.797887 -0.163895
-1.725288 2.201302 -2.715373 -0.133493 -0.888905 -0.187890
-1.607429 1.942570 -2.754781 -0.087601 -0.851594 -0.178207
-1.325214 0.852981 -1.670706 0.076262 -0.823221 -0.178384
-1.797726 1.355782 -2.301893 0.003537 -0.902793 -0.192593
-1.638517 1.996118 -2.836477 -0.083246 -0.880883 -0.190426
-1.352939 1.242446 -2.214129 0.023995 -0.822803 -0.174371
-1.693713 1.522418 -2.312298 -0.012158 -0.887206 -0.183530
-1.701165 1.801418 -2.641725 -0.050749 -0.890937 -0.182141
-1.266371 1.397210 -2.203203 0.008562 -0.822546 -0.174599
-1.569779 1.394967 -2.398925 0.005271 -0.866782 -0.184401
-1.664219 1.514741 -2.590967 -0.017912 -0.883318 -0.190277
-1.565067 0.927337 -2.312349 0.065531 -0.855373 -0.183343
-1.635260 0.478186 -2.001010 0.126775 -0.858403 -0.178815
-1.792699 0.594497 -2.064115 0.101557 -0.894886 -0.183476
-1.813563 0.687009 -2.235971 0.074450 -0.881240 -0.174109
-1.748869 0.154433 -1.981765 0.133448 -0.880509 -0.171258
-1.925687 0.339237 -1.911070 0.096245 -0.898722 -0.171224
-1.597422 0.036920 -1.833282 0.127687 -0.858208 -0.170545
-2.040815 -0.016171 -1.912118 0.120972 -0.948318 -0.188172
-1.928141 0.088285 -1.984632 0.099090 -0.934948 -0.180582
-1.739272 -0.202848 -1.786718 0.129729 -0.924056 -0.173012
-2.055715 -0.810739 -1.423514 0.193944 -0.996122 -0.173625
-2.077945 -0.922341 -1.147780 0.195406 -1.003191 -0.163782
-2.064824 -0.257096 -2.030464 0.075247 -1.043463 -0.176239
-2.143055 -0.576083 -1.733579 0.104631 -1.060972 -0.170382
-2.045844 -1.315293 -0.962559 0.193273 -1.068404 -0.168665
-2.236912 -0.724926 -1.315367 0.092396 -1.132540 -0.180416
-2.244110 -0.291422 -1.869262 0.007340 -1.167171 -0.186524
-2.083563 -0.783001 -1.325208 0.058710 -1.153767 -0.178675
-2.143972 -1.298250 -0.793607 0.109003 -1.193045 -0.187481
-2.348750 -0.732462 -1.330136 -0.001021 -1.259512 -0.206091
-2.129908 -0.433970 -1.375284 -0.068534 -1.230721 -0.204305
-2.291069 -1.366952 -0.490642 0.039708 -1.268770 -0.208090
-2.557952 -0.965376 -0.959843 -0.049404 -1.354938 -0.229171
-2.073408 -0.398394 -0.872275 -0.140020 -1.263245 -0.215213
-2.283150 -0.872960 -0.725465 -0.109033 -1.344787 -0.241143
-2.684279 -0.374235 -0.817230 -0.198709 -1.392184 -0.249755
-1.967263 -1.068326 -0.156783 -0.126221 -1.293941 -0.249034
-2.684520 0.450910 -0.933820 -0.356358 -1.430950 -0.281155
-2.199767 -0.840392 -0.154950 -0.199643 -1.354212 -0.273793
-2.646655 -0.343793 0.118450 -0.253574 -1.420726 -0.288691
-2.882251 0.270101 -1.417175 -0.377313 -1.521044 -0.336134
-2.266953 0.257117 -0.731740 -0.353259 -1.374974 -0.314003
-2.304894 -0.334847 0.266792 -0.261217 -1.459822 -0.358417
-3.054632 -1.316655 1.471085 -0.103206 -1.518700 -0.362583
-2.672318 -0.036282 -0.952908 -0.328638 -1.521968 -0.391279
-2.772127 0.455992 -0.363048 -0.391976 -1.527774 -0.411400
-2.852331 0.931350 -0.809155 -0.488442 -1.575821 -0.436787
-2.927841 -0.078250 0.361049 -0.329827 -1.571882 -0.441566
-3.240462 -0.298664 0.620214 -0.301284 -1.633393 -0.463245
-2.678438 0.127421 -0.606987 -0.334329 -1.589311 -0.477234
-2.914033 -0.448972 0.143950 -0.274303 -1.583917 -0.482529
-2.534672 -0.788264 0.973169 -0.207360 -1.559183 -0.478380
-3.407245 -0.826873 1.475962 -0.204258 -1.614535 -0.472905
-2.937892 -0.616006 -0.457559 -0.257958 -1.668682 -0.509307
-3.318262 0.405337 -0.573500 -0.442218 -1.710270 -0.520447
-2.853489 0.054577 0.826753 -0.342086 -1.629115 -0.503487
-2.889210 -1.492927 0.776238 -0.166576 -1.630080 -0.490116
-3.143951 0.749256 0.169474 -0.518753 -1.746106 -0.528127
-3.589766 0.226666 -0.256566 -0.411603 -1.788595 -0.519990
-2.605293 -0.876294 2.238620 -0.280044 -1.588171 -0.480871
-3.719140 -0.508109 0.508278 -0.314622 -1.943147 -0.543128
-3.321930 0.359228 -0.117064 -0.509823 -1.795889 -0.498687
-2.514637 0.717416 1.594796 -0.511493 -1.690037 -0.488602
-3.121296 -0.149899 5.992545 -0.619036 -1.952583 -0.497463
-1.765928 1.004288 22.582587 -0.689668 -1.860280 -0.441062
-1.380925 0.717518 40.255365 -0.874972 -2.018196 -0.468862
-2.853143 -0.248314 62.589967 -1.223711 -2.291205 -0.503595
-1.662619 -3.693725 83.068088 -1.185805 -2.080875 -0.429349
-1.476266 -6.335817 97.251839 -1.254155 -2.466335 -0.440366
0.616660 -8.192394 99.053345 -1.484151 -2.461387 -0.410737
-1.215042 -10.196113 92.729536 -1.496715 -2.463988 -0.388839
-3.327567 -11.957945 79.069901 -1.457010 -2.087403 -0.344254
-4.687811 -12.179759 60.489621 -1.639872 -1.469743 -0.297358
-6.173033 -11.394644 44.932054 -1.921754 -0.757843 -0.234511
-6.596297 -11.739546 32.654148 -1.845333 -0.326225 -0.216972
-4.620174 -9.565563 23.012796 -1.550095 0.069227 -0.146685
-4.893924 -6.703136 14.471929 -1.265107 -0.296453 -0.212186
-3.089659 -4.222235 9.227417 -0.861979 -0.167068 -0.181099
-2.014853 -2.705441 5.353942 -0.551537 -0.312869 -0.226033
-2.567760 -2.120096 3.883459 -0.121435 -0.542643 -0.218141
-1.492984 -1.088469 2.032371 0.085377 -0.564961 -0.197097
-2.478542 -0.005702 0.414909 0.053994 -0.744270 -0.177159
-2.748552 -1.109372 -0.258858 0.163060 -0.899153 -0.168385
-2.386279 -0.209482 0.446156 0.029102 -0.921938 -0.136138
-1.112719 0.398876 0.450839 -0.249326 -1.018038 -0.161915
-0.691954 -1.153180 4.591419 -0.422191 -1.311551 -0.192491
1.654151 -4.793981 12.492420 -0.403883 -1.407678 -0.193310
2.413592 -5.314456 18.137352 -0.700317 -1.798519 -0.266989
3.020552 -3.193547 24.822293 -0.858621 -2.065572 -0.302779
3.902867 0.454097 31.742422 -0.972060 -2.149635 -0.311502
2.771603 1.541424 42.433116 -1.030089 -2.293002 -0.353633
1.357526 -0.708206 52.915861 -1.111314 -2.349758 -0.379376
1.294072 -3.352460 62.225182 -1.135524 -2.365413 -0.376970
1.688197 -4.281390 67.045345 -0.997224 -2.429422 -0.322450
2.188100 -4.206639 67.301960 -0.877507 -2.545445 -0.329335
1.904953 -4.024311 63.885330 -0.881742 -2.376252 -0.299414
0.306114 -5.147787 58.062793 -0.790309 -2.139624 -0.274186
0.129530 -5.181159 50.445370 -0.785509 -1.644748 -0.242931
-0.553265 -3.673716 41.519475 -0.897796 -1.250890 -0.211024
-1.347465 -2.993118 37.225913 -0.942157 -1.145011 -0.209233
-2.412824 -3.571941 33.248792 -0.870863 -1.053458 -0.202725
-3.066333 -4.165871 31.657769 -0.841431 -0.918362 -0.186168
-3.346194 -4.356521 30.139473 -0.851557 -0.866224 -0.191160
-2.739392 -3.228769 30.414045 -0.908905 -0.767435 -0.178055
-3.289902 -2.989344 32.419841 -0.890275 -0.897900 -0.180419
-2.754557 -2.802416 35.444323 -0.968893 -0.992370 -0.181621
-2.577725 -3.200753 38.664154 -1.083096 -1.183001 -0.205472
-1.284675 -3.505966 44.655846 -1.064535 -1.123384 -0.182908
-1.087786 -3.117521 45.574105 -1.066566 -1.140282 -0.179678
-0.750359 -1.557461 47.416939 -1.115674 -1.201506 -0.168810
-0.044487 -1.365813 48.692109 -1.037907 -1.149937 -0.138064
-0.482242 -1.672751 49.471620 -1.006664 -1.357752 -0.157260
-0.671192 -1.617740 48.559486 -0.988981 -1.497861 -0.160401
0.846026 -1.079479 46.463372 -0.968279 -1.281193 -0.114267
0.282620 -0.688940 45.203183 -0.956721 -1.433450 -0.130088
-0.257834 0.003982 43.870225 -0.927334 -1.519103 -0.125807
0.553419 0.349694 42.591268 -0.823018 -1.320791 -0.086680
-0.260518 1.293746 41.638585 -0.788500 -1.496100 -0.117793
-0.274676 2.027601 40.783107 -0.735084 -1.511212 -0.109989
1.317168 2.390820 40.554874 -0.702128 -1.279412 -0.071435
0.774051 2.209897 40.700487 -0.731422 -1.511350 -0.120548
1.064239 1.603130 41.603052 -0.677760 -1.472392 -0.131534
1.082312 1.788462 42.026704 -0.656761 -1.473512 -0.152289
0.361553 2.692441 42.257364 -0.690926 -1.635421 -0.188788
0.464226 2.802323 42.721517 -0.643475 -1.611243 -0.185252
0.865160 2.795306 43.220725 -0.640026 -1.566769 -0.188888
0.834517 2.434590 43.265328 -0.593352 -1.597763 -0.194472
0.707849 2.128872 43.207143 -0.553552 -1.682577 -0.210034
0.603277 1.769384 43.169201 -0.504897 -1.692695 -0.208156
0.913415 1.336498 43.163768 -0.420471 -1.590983 -0.194635
0.525587 1.547572 43.151072 -0.393593 -1.640750 -0.201060
1.158478 1.764134 42.912370 -0.344065 -1.508688 -0.177244
0.792731 1.857495 42.928693 -0.325950 -1.569610 -0.185805
0.721754 1.728060 43.086953 -0.326341 -1.601321 -0.195402
0.766821 1.462909 43.242393 -0.311955 -1.575014 -0.185148
0.518063 1.167660 43.854563 -0.282845 -1.661763 -0.194366
0.886317 1.014881 44.230616 -0.269144 -1.619123 -0.180865
0.835636 0.874138 44.491935 -0.281385 -1.654793 -0.184722
0.663150 0.561391 45.029307 -0.260205 -1.636653 -0.180555
0.476477 0.445734 45.241334 -0.243001 -1.594035 -0.180319
0.479868 0.558582 45.295263 -0.244466 -1.527998 -0.178829
0.340345 0.505259 45.365634 -0.239747 -1.508866 -0.179362
0.215631 0.315832 45.304508 -0.253874 -1.531081 -0.180935
0.149031 0.162940 45.405587 -0.244629 -1.539126 -0.175634
0.069641 -0.086147 45.662256 -0.220676 -1.567146 -0.176427
-0.073914 -0.075445 45.693651 -0.226145 -1.578975 -0.180507
-0.050663 -0.140464 45.863398 -0.230695 -1.550449 -0.187148
-0.339040 -0.368914 46.420165 -0.206850 -1.554652 -0.188340
-0.377685 -0.337355 46.647181 -0.225840 -1.550953 -0.185899
-0.211497 -0.262609 46.858919 -0.247206 -1.521417 -0.165543
-0.125528 -0.281499 47.232441 -0.255671 -1.508129 -0.155865
-0.074475 -0.287898 47.488272 -0.259715 -1.477389 -0.151871
-0.105783 -0.314376 47.692195 -0.258063 -1.455625 -0.154342
-0.212949 -0.312356 47.826706 -0.262204 -1.446433 -0.159287
-0.223358 -0.322145 47.930748 -0.270580 -1.442794 -0.164104
-0.244507 -0.473441 48.077547 -0.259702 -1.453517 -0.166583
-0.233866 -0.447687 48.110041 -0.267900 -1.457824 -0.167707
-0.229007 -0.312023 48.000126 -0.283038 -1.449716 -0.166413
-0.309408 -0.301292 47.992724 -0.273120 -1.449258 -0.164900
-0.213035 -0.206757 48.054829 -0.276931 -1.425958 -0.160585
-0.115217 -0.103561 48.000419 -0.285992 -1.417110 -0.159838
-0.094567 -0.051048 48.078016 -0.276390 -1.418710 -0.160350
-0.122956 0.008256 48.313060 -0.261099 -1.420986 -0.159055
-0.013294 0.140439 48.404514 -0.258148 -1.413069 -0.158417
-0.012958 0.274228 48.512643 -0.261848 -1.424681 -0.160195
0.002906 0.261652 48.867179 -0.269298 -1.417769 -0.159515
-0.091630 0.178562 49.122601 -0.295014 -1.419811 -0.161784
-0.169338 0.102211 49.526469 -0.323945 -1.427248 -0.164346
-0.080191 0.058875 50.056784 -0.339290 -1.421667 -0.162983
-0.036852 0.144019 50.533564 -0.360325 -1.432317 -0.165003
-0.124259 0.157370 50.984580 -0.367695 -1.427962 -0.163615
-0.103330 0.116549 51.440101 -0.375466 -1.393014 -0.160082
-0.103094 -0.042451 51.909644 -0.371436 -1.371460 -0.156611
0.014363 -0.244418 52.282094 -0.371255 -1.354495 -0.156934
-0.246745 -0.183216 52.395598 -0.402042 -1.383351 -0.162682
-0.221445 -0.254651 52.471936 -0.409406 -1.359355 -0.160746
-0.331540 -0.442062 52.630314 -0.407121 -1.364390 -0.159625
-0.414242 -0.485287 52.630217 -0.408872 -1.370516 -0.159496
-0.301077 -0.419325 52.445761 -0.380112 -1.335493 -0.151027
-0.524433 -0.193145 52.193185 -0.352729 -1.373655 -0.156226
-0.478230 -0.164203 51.934710 -0.319074 -1.347923 -0.151637
-0.453151 -0.137072 51.471447 -0.321771 -1.330819 -0.151292
-0.620746 -0.131064 51.001287 -0.317651 -1.340436 -0.152700
-0.386410 -0.050561 50.626432 -0.301076 -1.283277 -0.143744
-0.475347 0.176621 50.085661 -0.302903 -1.306254 -0.143898
-0.376107 0.322708 49.757198 -0.297014 -1.326192 -0.144255
-0.145978 0.414442 49.651721 -0.264733 -1.320107 -0.135858
-0.131512 0.490917 49.636079 -0.252300 -1.355689 -0.138750
0.042103 0.638982 49.624850 -0.237945 -1.382467 -0.137720
0.252281 0.735013 49.656862 -0.254223 -1.383277 -0.134720
-0.039550 0.493531 49.961496 -0.265568 -1.432235 -0.140049
0.061497 0.390375 50.370065 -0.277391 -1.393319 -0.131474
0.286816 0.563804 50.699108 -0.295535 -1.379786 -0.126874
0.425726 0.813352 50.875427 -0.317631 -1.399300 -0.129987
0.337676 0.819863 51.122392 -0.318310 -1.404185 -0.128658
0.339787 0.599854 51.233915 -0.309238 -1.391557 -0.129065
0.051553 0.504693 51.006132 -0.322505 -1.440360 -0.138937
0.219455 0.485472 50.670501 -0.344257 -1.419725 -0.141292
0.300446 0.428381 50.289664 -0.352332 -1.396846 -0.141755
-0.157067 0.454450 49.894174 -0.338389 -1.455652 -0.153157
-0.087209 0.827297 49.176506 -0.309731 -1.440729 -0.151453
-0.124710 1.163077 48.413579 -0.302016 -1.455396 -0.152873
-0.143296 1.012807 47.981990 -0.278172 -1.444774 -0.152216
-0.014340 0.912112 47.518661 -0.278028 -1.408433 -0.148751
-0.032984 0.970881 46.976033 -0.294726 -1.420778 -0.153689
0.021727 0.999970 46.604178 -0.283538 -1.427101 -0.153217
0.151544 1.060852 46.317672 -0.265859 -1.427841 -0.152384
0.255612 1.102713 46.052109 -0.260993 -1.437774 -0.156392
0.315074 1.156399 45.820157 -0.268816 -1.443229 -0.158824
0.364797 1.128171 45.570391 -0.269145 -1.438653 -0.157331
0.381993 1.121617 45.365280 -0.272927 -1.437948 -0.156926
0.349099 1.094369 45.223181 -0.270670 -1.435520 -0.153858
0.352577 1.055017 45.085225 -0.268221 -1.429570 -0.150054
0.323278 1.062006 44.919881 -0.273626 -1.436408 -0.148711
0.342494 1.088255 44.784131 -0.280316 -1.440249 -0.148354
0.343737 1.054243 44.682619 -0.275172 -1.450443 -0.149173
0.327519 0.978635 44.655188 -0.261962 -1.467669 -0.152895
0.325981 0.983854 44.527985 -0.259216 -1.477335 -0.156007
0.333282 1.016881 44.294864 -0.263698 -1.486216 -0.161309
0.351637 0.960601 44.127166 -0.252919 -1.481734 -0.163258
0.330671 0.926775 43.945072 -0.242942 -1.478917 -0.164895
0.279105 0.920356 43.708077 -0.238939 -1.493288 -0.169474
0.228455 0.962433 43.361571 -0.242694 -1.512434 -0.174953
0.171500 0.907483 43.103664 -0.233971 -1.531727 -0.179563
0.116638 0.868260 42.868044 -0.233129 -1.552396 -0.185050
0.090064 0.817395 42.619761 -0.234121 -1.567585 -0.189508
0.046850 0.778846 42.373187 -0.234525 -1.580918 -0.195764
0.007639 0.774570 42.151516 -0.230160 -1.583391 -0.203129
-0.044590 0.783698 42.001557 -0.224294 -1.587172 -0.211683
-0.081203 0.808184 41.832460 -0.220911 -1.590565 -0.221956
-0.116744 0.815051 41.716812 -0.217265 -1.590338 -0.230798
-0.110192 0.809990 41.678582 -0.214756 -1.584095 -0.233248
-0.111543 0.805566 41.584488 -0.214412 -1.579674 -0.237183
-0.125932 0.800424 41.549179 -0.213528 -1.578399 -0.239698
-0.145782 0.750157 41.588262 -0.206127 -1.579103 -0.241039
-0.158137 0.739816 41.589096 -0.206877 -1.585450 -0.243684
-0.156885 0.729456 41.615826 -0.207720 -1.590911 -0.245928
-0.143602 0.694034 41.652172 -0.205476 -1.595705 -0.248112
-0.109977 0.656752 41.709119 -0.203210 -1.598972 -0.250251
-0.112246 0.640593 41.735533 -0.202741 -1.600465 -0.251253
-0.109270 0.611678 41.768874 -0.200880 -1.597314 -0.251541
-0.119425 0.567508 41.799717 -0.196337 -1.594209 -0.251494
-0.121609 0.557937 41.798542 -0.198944 -1.594217 -0.252113
-0.125392 0.579370 41.779194 -0.203823 -1.592613 -0.251579
-0.083092 0.534949 41.875282 -0.197137 -1.584988 -0.250291
-0.093171 0.467252 41.975483 -0.187335 -1.588816 -0.250720
-0.090063 0.474655 42.040478 -0.190536 -1.599195 -0.253255
-0.084706 0.489998 42.105418 -0.194962 -1.607491 -0.254793
-0.070702 0.471647 42.225863 -0.193505 -1.611541 -0.254997
-0.084646 0.433707 42.374287 -0.189405 -1.618890 -0.255365
-0.111739 0.426481 42.499287 -0.189840 -1.628011 -0.256243
-0.109018 0.421400 42.590838 -0.190898 -1.628319 -0.255282
-0.117348 0.421027 42.650134 -0.195484 -1.631895 -0.254685
-0.141249 0.377283 42.722709 -0.192706 -1.634700 -0.253599
-0.140068 0.282042 42.743412 -0.185177 -1.631194 -0.250136
-0.133666 0.252853 42.743862 -0.182448 -1.629173 -0.249045
-0.118003 0.228586 42.698489 -0.181359 -1.620120 -0.244906
-0.089284 0.183231 42.678579 -0.175266 -1.607270 -0.240424
-0.083886 0.168994 42.640723 -0.172160 -1.597597 -0.236581
-0.097668 0.171562 42.594819 -0.169688 -1.594082 -0.234438
-0.092890 0.191487 42.539227 -0.168016 -1.586900 -0.232074
-0.105745 0.214891 42.453261 -0.165104 -1.585988 -0.231559
-0.118925 0.260643 42.321689 -0.168443 -1.591016 -0.233514
-0.109618 0.251051 42.296846 -0.160050 -1.581347 -0.231037
-0.114461 0.172616 42.144564 -0.149203 -1.587993 -0.233308
-0.090115 0.256965 41.834228 -0.162674 -1.593124 -0.236612
-0.093903 0.341344 41.432640 -0.173071 -1.588945 -0.236413
-0.094692 0.326083 41.177065 -0.160767 -1.572261 -0.232780
-0.127170 0.319242 40.765796 -0.150079 -1.562031 -0.231516
-0.129547 0.400736 40.249751 -0.151538 -1.552321 -0.231874
-0.101320 0.489225 39.767366 -0.157854 -1.545251 -0.234556
-0.089472 0.475115 39.275614 -0.150977 -1.540811 -0.239013
-0.108077 0.463021 38.893227 -0.147658 -1.541118 -0.242979
-0.142886 0.463040 38.589535 -0.145950 -1.543867 -0.245889
-0.088678 0.522047 38.232425 -0.148787 -1.533231 -0.247023
-0.089544 0.504802 38.057504 -0.148377 -1.536223 -0.248513
-0.126046 0.589507 38.063873 -0.160538 -1.540077 -0.251247
-0.119121 0.550778 38.140834 -0.159319 -1.546224 -0.256403
-0.061618 0.615583 38.225842 -0.169842 -1.549080 -0.259705
-0.052005 0.686315 38.298942 -0.181762 -1.575543 -0.267348
-0.026739 0.753602 38.364431 -0.190428 -1.590389 -0.270286
-0.017912 0.764863 38.448425 -0.189782 -1.597487 -0.269880
-0.039387 0.735085 38.498561 -0.182515 -1.595913 -0.266984
-0.055805 0.628705 38.440933 -0.168964 -1.588642 -0.263357
-0.075803 0.621217 38.367678 -0.174383 -1.579875 -0.260916
-0.135867 0.582942 38.131674 -0.180934 -1.586779 -0.264163
-0.136042 0.608553 37.803755 -0.195347 -1.575133 -0.264324
-0.150007 0.541284 37.598129 -0.194637 -1.564460 -0.264441
-0.230450 0.498686 37.290076 -0.198104 -1.569968 -0.267498
-0.227389 0.478865 37.012673 -0.193777 -1.567156 -0.268304
-0.087499 0.451159 36.642294 -0.178464 -1.559684 -0.269077
-0.069061 0.572286 36.395340 -0.170320 -1.579423 -0.272857
-0.065836 0.632506 36.167504 -0.159767 -1.599480 -0.277541
-0.032229 0.648742 36.077135 -0.147972 -1.597778 -0.278407
-0.058133 0.723118 35.956028 -0.151591 -1.607002 -0.282386
-0.135219 0.778726 35.816031 -0.157243 -1.626017 -0.287660
-0.100457 0.838528 35.684735 -0.162961 -1.618909 -0.288018
-0.102652 0.879474 35.512410 -0.168480 -1.621070 -0.289991
-0.129440 0.875057 35.297252 -0.168986 -1.626062 -0.291808
-0.174333 0.822971 34.998273 -0.166256 -1.631008 -0.293546
-0.242225 0.806713 34.687340 -0.168019 -1.636832 -0.295798
-0.228772 0.830335 34.370203 -0.164471 -1.623525 -0.294323
-0.214568 0.865076 34.007299 -0.157061 -1.620086 -0.295436
-0.220590 0.840246 33.726159 -0.134524 -1.617324 -0.294667
-0.210637 0.838536 33.541101 -0.122574 -1.614610 -0.294550
-0.203456 0.854877 33.307276 -0.120145 -1.619131 -0.296012
-0.171403 0.853781 33.281454 -0.121660 -1.626986 -0.297738
-0.146072 0.813278 33.503071 -0.112997 -1.646276 -0.300222
-0.044375 0.896717 33.668401 -0.122708 -1.665440 -0.303926
0.034253 1.057834 33.875757 -0.136452 -1.692123 -0.308045
0.143051 1.121228 34.227730 -0.135497 -1.721430 -0.313806
0.157930 1.118540 34.666249 -0.143045 -1.740314 -0.315689
0.126630 0.962902 35.165153 -0.157296 -1.750708 -0.320358
-0.114868 0.703409 35.639377 -0.172188 -1.774710 -0.326197
-0.189601 0.579964 36.054082 -0.185562 -1.766902 -0.326910
-0.246533 0.466191 36.486193 -0.173661 -1.750484 -0.324446
-0.325690 0.405944 36.859149 -0.162484 -1.748111 -0.325365
-0.423234 0.242575 37.294079 -0.135622 -1.741519 -0.323640
-0.426804 0.113960 37.546769 -0.126933 -1.720690 -0.318540
-0.427035 0.013679 37.617958 -0.123507 -1.715026 -0.315768
-0.452362 0.036909 37.687402 -0.136828 -1.712732 -0.312093
-0.429214 -0.099363 37.601406 -0.133480 -1.701508 -0.306357
-0.413087 -0.168100 37.527934 -0.140139 -1.696520 -0.303845
-0.467874 -0.208509 37.312046 -0.153684 -1.702314 -0.302330
-0.427766 -0.108758 36.967775 -0.168000 -1.712379 -0.302478
-0.328695 -0.057010 36.681940 -0.150773 -1.714995 -0.298024
-0.286040 -0.014009 36.430192 -0.118564 -1.725300 -0.293465
-0.320470 -0.027033 36.051771 -0.105575 -1.734070 -0.292850
-0.333765 0.024389 35.510973 -0.110784 -1.709211 -0.286630
-0.330065 0.041326 35.056634 -0.106682 -1.682267 -0.281570
-0.323389 0.088038 34.576441 -0.092907 -1.651151 -0.275321
-0.249190 0.201735 34.092830 -0.080238 -1.612913 -0.268950
-0.216272 0.429418 33.493713 -0.089829 -1.588670 -0.267324
-0.230449 0.602078 32.865677 -0.099122 -1.572584 -0.267953
-0.288186 0.588459 32.444573 -0.084239 -1.555303 -0.266074
-0.333571 0.553093 32.002503 -0.071795 -1.553907 -0.269288
-0.338087 0.599985 31.586500 -0.066763 -1.543253 -0.268985
-0.291460 0.677497 30.883536 -0.064407 -1.531321 -0.269894
-0.316156 0.737565 30.212325 -0.060030 -1.527453 -0.270304
-0.333721 0.737773 29.627625 -0.047237 -1.515478 -0.267738
-0.351632 0.731500 29.025894 -0.040086 -1.510592 -0.266601
-0.418846 0.744515 28.252178 -0.035829 -1.515038 -0.266016
-0.315569 0.891425 27.331863 -0.044672 -1.504790 -0.264728
-0.183808 1.076672 26.456013 -0.039931 -1.474548 -0.254509
-0.054777 0.950469 25.909200 0.008439 -1.451831 -0.245028
-0.097132 0.759948 25.269365 0.045601 -1.462377 -0.242303
-0.150159 1.026048 24.044988 -0.000533 -1.490209 -0.247622
-0.040209 1.212622 22.952453 -0.025272 -1.477819 -0.244477
0.110378 1.004045 22.278161 0.020208 -1.458717 -0.237575
0.085505 1.026303 21.542023 0.037851 -1.483579 -0.237445
0.052660 1.093523 20.910525 0.058995 -1.510793 -0.236380
0.100286 1.014680 20.159197 0.089264 -1.528251 -0.235761
0.039172 1.256676 19.084506 0.051309 -1.583545 -0.243269
0.048205 1.428125 18.109336 0.023704 -1.618588 -0.247576
0.037179 1.294346 17.535183 0.047458 -1.634569 -0.248021
0.386241 0.916286 17.413837 0.120181 -1.576487 -0.237098
0.332138 0.743970 16.754979 0.149919 -1.630086 -0.250998
0.313597 1.315277 15.333022 0.071839 -1.688512 -0.264481
0.249916 1.617757 14.173152 0.038735 -1.745334 -0.276174
0.225259 1.193907 14.205841 0.136552 -1.711215 -0.257651
0.172851 0.606627 13.888626 0.225548 -1.773162 -0.276010
-0.028930 1.049138 12.330081 0.150384 -1.821052 -0.285472
0.589776 1.722813 10.737536 0.063856 -1.744532 -0.278915
0.606729 1.205667 10.967041 0.149676 -1.738122 -0.273767
0.255193 0.576021 10.610225 0.237113 -1.814279 -0.282011
0.028412 1.034843 9.064440 0.157408 -1.891956 -0.301803
0.283371 1.380321 8.508651 0.126993 -1.803120 -0.279753
-0.081253 0.920228 7.586672 0.163950 -1.889703 -0.294168
0.074917 1.153135 6.295752 0.106294 -1.894333 -0.300909
0.518022 0.877172 6.481821 0.164439 -1.757304 -0.270313
0.077508 0.635599 5.995345 0.182686 -1.842894 -0.283703
-0.104359 1.244354 4.740583 0.079241 -1.914886 -0.304799
0.447372 1.446466 4.500112 0.053603 -1.783175 -0.282370
0.077779 0.886494 5.128108 0.135880 -1.821810 -0.282490
-0.116365 1.011545 5.212211 0.120136 -1.947244 -0.312087
0.669300 2.070643 4.891824 0.017160 -1.822555 -0.292759
0.823938 2.331984 5.262375 -0.007855 -1.857588 -0.302089
0.636661 2.104680 6.815092 0.019706 -1.950218 -0.311606
0.563961 1.520902 8.306501 0.038483 -1.971055 -0.310408
1.367958 2.119622 9.129129 -0.123805 -1.905726 -0.314909
0.871327 2.292724 10.200530 -0.183336 -2.046225 -0.352392
0.999718 2.316588 11.746022 -0.147439 -2.017713 -0.351492
1.016225 2.281805 14.440396 -0.060960 -2.024144 -0.361464
0.697022 2.722491 15.406868 -0.082893 -2.055783 -0.365259
0.764339 2.926208 16.662894 -0.119518 -2.051784 -0.372057
-0.026705 2.582197 18.462847 -0.107720 -2.155016 -0.388356
0.737512 1.963868 20.191990 -0.040124 -1.917066 -0.344640
0.687896 1.820760 21.305920 -0.058566 -1.976210 -0.380907
-0.201863 1.673222 22.010722 -0.053368 -2.093133 -0.404704
-0.060907 1.493011 23.226429 -0.019747 -1.956367 -0.384512
-0.188327 1.183083 23.839264 -0.027113 -1.972951 -0.409275
-1.305693 0.766466 24.256074 -0.055159 -2.106813 -0.421554
-1.127923 0.209049 24.837206 -0.057972 -2.046423 -0.410621
-0.233974 -0.150088 24.909777 -0.066840 -1.865675 -0.384718
-0.895808 -0.062363 24.843369 -0.094797 -1.994920 -0.408149
-1.530902 -0.166525 24.524443 -0.060643 -2.079830 -0.423896
-1.375275 -0.722349 24.457871 0.029049 -1.918446 -0.402020
-1.193193 -1.036142 23.855428 0.004398 -1.857773 -0.409912
-2.573161 -1.411422 23.147637 -0.057055 -2.077087 -0.455709
-2.053772 -2.071440 22.977056 -0.024222 -1.907042 -0.425569
-1.580059 -2.279737 22.546872 -0.013234 -1.786343 -0.403920
-1.719156 -2.054966 21.763716 -0.045425 -1.803992 -0.406337
-2.204923 -1.881250 20.954274 -0.073879 -1.869577 -0.418441
-2.319634 -1.835599 20.496641 -0.087015 -1.809956 -0.407061
-2.136302 -2.049130 20.328555 -0.090527 -1.726030 -0.403707
-2.328375 -2.247270 20.075316 -0.096699 -1.718494 -0.410257
-2.181007 -2.305792 19.587045 -0.104539 -1.640430 -0.405557
-2.294660 -2.202726 19.325739 -0.106706 -1.629442 -0.406212
-2.404578 -2.002252 18.918378 -0.107328 -1.611311 -0.395842
-2.100284 -1.878366 18.542774 -0.097089 -1.533960 -0.372690
-2.132015 -1.785722 18.193015 -0.101825 -1.540844 -0.361145
-1.855718 -1.708001 17.784629 -0.114895 -1.503799 -0.344174
-1.421954 -1.607608 17.085426 -0.135004 -1.445099 -0.328585
-1.152493 -1.256424 16.123060 -0.179533 -1.412518 -0.318874
-0.980344 -0.908944 15.143918 -0.196940 -1.379333 -0.305096
-0.962988 -0.700657 14.005911 -0.179541 -1.362895 -0.287449
-0.821531 -0.581355 13.217710 -0.132793 -1.311607 -0.256232
-0.631833 -0.601467 12.123296 -0.101616 -1.296241 -0.242498
-0.506399 -0.257317 10.554754 -0.138839 -1.299605 -0.235408
-0.180572 0.256151 8.898128 -0.195083 -1.273448 -0.227991
0.072228 -0.240799 8.604374 -0.082993 -1.194917 -0.200718
-0.069673 -0.651961 7.812557 -0.006051 -1.249706 -0.209271
-0.335763 -0.017306 5.742137 -0.088828 -1.325499 -0.222816
-0.015959 0.478419 4.747676 -0.117621 -1.230922 -0.200024
0.011968 0.278394 3.804021 -0.077077 -1.237204 -0.200100
-0.080372 0.533599 2.409131 -0.058108 -1.217076 -0.191154
0.163366 0.287089 2.176260 -0.017663 -1.165973 -0.184246
-0.076658 0.709814 0.721493 -0.061061 -1.214674 -0.199008
-0.102248 0.974736 0.429875 -0.063763 -1.193159 -0.192518
-0.206586 0.495024 0.201550 0.006548 -1.215109 -0.197950
-0.335579 0.668590 -0.568043 -0.009449 -1.231646 -0.202939
-0.170880 0.437406 -0.222479 0.057081 -1.166101 -0.190393
-0.190659 0.572548 -0.650132 0.037785 -1.204502 -0.206958
-0.427357 1.145235 -1.569899 -0.038087 -1.260203 -0.222260
-0.178972 0.838535 -1.044830 0.035839 -1.164005 -0.201611
-0.388780 0.344806 -0.786683 0.105606 -1.187978 -0.207693
-1.041689 1.248004 -1.848608 -0.037100 -1.325308 -0.240580
-0.652708 1.506586 -1.720122 -0.062798 -1.186576 -0.215368
-0.985804 0.873660 -1.564993 -0.004650 -1.293716 -0.242088
-1.504860 1.320647 -1.866544 -0.094631 -1.389269 -0.264836
-1.019869 1.706394 -2.190073 -0.170617 -1.270768 -0.253615
-1.612537 0.688276 -1.117447 -0.049301 -1.357634 -0.267685
-2.054100 0.690227 -1.223684 -0.076679 -1.436259 -0.284638
-1.366168 1.549777 -2.394511 -0.217056 -1.349893 -0.288687
-1.613170 1.184137 -1.843371 -0.149946 -1.330808 -0.273734
-2.112275 0.506238 -1.350205 -0.060896 -1.430898 -0.288684
-1.735854 1.136009 -2.088302 -0.152853 -1.359574 -0.280938
-1.973898 1.579897 -2.781991 -0.208407 -1.396274 -0.286873
-1.990193 0.754647 -1.891702 -0.059801 -1.365783 -0.268780
-2.067555 0.250796 -1.524197 0.037371 -1.378027 -0.265076
-2.015105 1.197656 -2.949166 -0.086519 -1.419807 -0.281541
-1.936481 1.200282 -2.962264 -0.074054 -1.391134 -0.274290
-2.181344 0.584203 -2.384053 0.021197 -1.412703 -0.270314
-2.258944 -0.255075 -1.356029 0.150681 -1.401684 -0.261952
-2.154292 0.241718 -2.246641 0.066355 -1.413589 -0.276610
-2.224578 1.234090 -3.629455 -0.083061 -1.430931 -0.285958
-2.108271 0.350184 -2.558192 0.053819 -1.378105 -0.270764
-2.168449 -0.629195 -1.512286 0.194883 -1.376336 -0.268147
-2.239250 0.563558 -2.900690 0.026126 -1.430048 -0.292573
-2.180762 1.148466 -3.428100 -0.046463 -1.394142 -0.287137
-2.341285 -0.630920 -2.010607 0.204223 -1.411280 -0.281817
-2.524768 -0.449150 -2.241117 0.185700 -1.439898 -0.286122
-2.171402 0.445221 -2.880308 0.057088 -1.342876 -0.269559
-2.352067 0.182882 -3.065978 0.076740 -1.383142 -0.272718
-2.351036 -0.114076 -1.869725 0.138581 -1.310455 -0.243384
-2.201982 0.024969 -2.767468 0.087403 -1.307652 -0.248913
-2.179690 0.336354 -2.849379 0.060371 -1.291190 -0.243774
-2.406467 0.481995 -2.883214 0.049493 -1.305463 -0.242059
-2.123489 -0.532724 -2.305779 0.178110 -1.244673 -0.232937
-2.411036 -0.221104 -1.964645 0.172169 -1.231296 -0.216380
-2.229702 0.717885 -3.191435 0.029302 -1.271759 -0.233551
-2.168849 -0.158944 -2.367933 0.156370 -1.194716 -0.199678
-2.374998 -0.055080 -2.497006 0.147610 -1.225484 -0.199336
-2.177002 0.391425 -3.175652 0.069711 -1.201431 -0.198338
-2.277741 0.066041 -2.814964 0.122060 -1.165982 -0.182267
-2.393466 0.062726 -2.615536 0.134445 -1.177856 -0.179069
-2.056234 0.134596 -3.344195 0.107092 -1.132875 -0.176711
-2.089117 0.353632 -2.944342 0.105488 -1.122097 -0.169587
-2.104153 -0.354037 -2.368781 0.214535 -1.083846 -0.150169
-2.168710 -0.015593 -2.251218 0.168744 -1.098446 -0.152699
-2.278311 0.327176 -3.135184 0.104278 -1.143600 -0.165387
-2.278468 0.050655 -3.301495 0.122767 -1.143565 -0.167535
-2.284671 -0.019663 -2.130026 0.159145 -1.115586 -0.158253
-2.227409 -0.048898 -2.305103 0.159540 -1.092639 -0.153056
-2.293802 0.142692 -2.320444 0.136437 -1.123308 -0.166061
-2.210110 0.110392 -3.311264 0.110022 -1.138229 -0.181281
-2.164826 0.219906 -2.739516 0.134465 -1.116905 -0.179034
-2.099104 0.166533 -2.770456 0.137863 -1.108350 -0.180376
-2.080944 0.357839 -2.506566 0.126212 -1.075609 -0.173832
-2.190962 0.381863 -2.860342 0.098078 -1.101244 -0.181292
-2.104718 -0.062312 -2.968598 0.156893 -1.071352 -0.176070
-2.191837 0.071136 -2.630125 0.138541 -1.084616 -0.183706
-2.116631 0.233794 -3.183607 0.115421 -1.072773 -0.185245
-2.164375 0.186881 -3.109787 0.129842 -1.092472 -0.191491
-2.173250 0.219627 -2.882002 0.132497 -1.077054 -0.184689
-2.110662 -0.002049 -2.005007 0.191160 -1.017665 -0.162730
-2.202123 0.111690 -2.617264 0.154597 -1.055833 -0.172986
-2.130289 0.435850 -3.158896 0.102013 -1.045573 -0.170644
-2.102218 0.300209 -2.718856 0.130604 -1.047729 -0.170141
-2.200864 -0.026266 -2.188389 0.183365 -1.040641 -0.165970
-2.040343 0.219317 -2.417131 0.102430 -1.061190 -0.193728
-2.154761 0.619200 -1.855896 0.034421 -1.058574 -0.201020
-2.187958 -0.032958 -1.406366 0.043345 -1.064538 -0.205598
-2.364392 0.004703 -1.013396 -0.033317 -1.117735 -0.210551
-2.110444 0.598119 -1.117937 -0.224893 -1.115351 -0.230296
-2.611073 1.023559 -1.283374 -0.324654 -1.221646 -0.252283
-2.407941 0.590927 -0.194730 -0.303618 -1.235660 -0.263858
-2.562510 -0.093058 -0.774330 -0.223100 -1.333914 -0.281024
-2.438381 0.444651 -1.113355 -0.348263 -1.433919 -0.342134
-2.613406 0.608829 -0.620102 -0.379684 -1.489491 -0.375486
-2.906986 -0.037116 1.076471 -0.324696 -1.533163 -0.411775
-2.521427 -0.636034 0.040519 -0.316108 -1.561762 -0.443287
-3.182182 -0.081844 0.650693 -0.389062 -1.651147 -0.464121
-2.946472 0.560604 0.820086 -0.518662 -1.680760 -0.490272
-3.324967 -0.208291 -1.257983 -0.477216 -1.856302 -0.526225
-2.428775 0.686953 0.728833 -0.508951 -1.659582 -0.482028
-3.354013 -0.314132 1.588112 -0.404842 -1.861556 -0.515422
-3.349996 0.366770 6.419653 -0.412767 -1.928419 -0.500761
-1.970994 3.022491 12.880032 -0.651615 -2.039416 -0.510907
-0.914020 2.884109 27.397359 -0.748411 -2.132245 -0.488986
-0.929087 -0.011395 49.217073 -0.576026 -2.276968 -0.476005
-1.299742 -0.875656 66.398158 -0.842091 -2.503424 -0.495773
-0.504022 -1.218168 80.209816 -1.041078 -2.470878 -0.471707
-0.354917 -3.768977 89.060331 -0.884528 -2.469282 -0.413434
-1.231836 -6.551980 90.046226 -0.792231 -2.525147 -0.400455
-2.021508 -8.458703 79.644803 -0.788492 -2.312604 -0.364688
-1.699064 -6.935386 68.133031 -1.021704 -1.757585 -0.315572
-4.098582 -7.870914 55.469109 -0.863130 -1.487532 -0.288500
-4.075899 -7.603920 41.633950 -0.965032 -0.929620 -0.292219
-5.443064 -5.912693 31.156279 -1.201429 -0.547720 -0.266768
-5.779038 -6.790284 23.817392 -1.078528 -0.318660 -0.238521
-4.908057 -6.718090 18.530294 -0.903175 -0.137872 -0.205269
-3.674525 -4.635400 11.792609 -0.904279 -0.044521 -0.176878
-3.688334 -2.477165 7.172639 -0.884533 -0.329934 -0.221271
-3.553763 -3.421654 6.416194 -0.482870 -0.362599 -0.183356
-3.801334 -3.912597 6.298560 -0.267205 -0.602324 -0.205725
-3.645496 -3.660164 6.497233 -0.259238 -0.722544 -0.203026
-3.546996 -3.561239 7.125177 -0.305293 -0.882985 -0.207883
-2.151402 -3.197328 11.067034 -0.489212 -0.861427 -0.168478
-1.844815 -3.976884 14.266476 -0.644686 -1.063633 -0.179233
-0.659121 -3.640779 19.957490 -1.056792 -1.221812 -0.178286
0.656731 -4.127427 26.682684 -1.410452 -1.424504 -0.229283
1.118114 -5.510681 36.241257 -1.585825 -1.523363 -0.252531
1.375507 -6.154461 44.617070 -1.719751 -1.614405 -0.277877
1.317921 -6.300064 51.023922 -1.823603 -1.741770 -0.305404
0.381252 -6.783093 55.531634 -1.834664 -1.891647 -0.299352
-0.022992 -7.941522 57.510145 -1.867542 -1.970104 -0.309431
-0.974283 -8.945188 56.718591 -1.838112 -2.032181 -0.309447
0.314375 -9.591783 53.984487 -1.665090 -1.686870 -0.264327
-0.767237 -8.442337 49.000609 -1.638413 -1.697853 -0.271692
-0.673907 -7.463694 43.036770 -1.579334 -1.417430 -0.241112
-1.682802 -6.960636 36.459721 -1.566798 -1.290807 -0.233187
-1.488327 -6.820883 33.161511 -1.500738 -1.064576 -0.216347
-1.590018 -6.599013 30.629015 -1.365717 -0.902848 -0.194158
-2.128277 -5.689592 28.293443 -1.318556 -0.894157 -0.203138
-2.516385 -4.306821 27.901025 -1.328685 -0.962754 -0.220206
-3.015822 -4.081058 27.860674 -1.328502 -1.086399 -0.234279
-2.885084 -3.901180 30.428971 -1.377813 -1.158033 -0.233226
-2.589915 -4.135742 32.759342 -1.456854 -1.270511 -0.244237
-2.020947 -3.858270 34.937844 -1.516524 -1.263595 -0.235327
-1.446770 -2.885271 37.454862 -1.527379 -1.219219 -0.218354
-1.446595 -2.106819 39.929386 -1.475457 -1.243900 -0.212584
-1.091318 -2.030194 41.187286 -1.424837 -1.237078 -0.220928
-0.821914 -1.667324 42.056648 -1.444393 -1.208068 -0.217644
-0.612328 -2.121049 42.403742 -1.332500 -1.230987 -0.214872
-0.651459 -2.019940 41.458218 -1.271925 -1.286351 -0.205863
-0.294232 -1.679666 39.757076 -1.252772 -1.287839 -0.199994
-0.928303 -1.208334 37.984095 -1.221642 -1.413288 -0.205817
-1.046983 -0.765220 36.669495 -1.130761 -1.428919 -0.193490
-0.674647 -0.321854 35.232077 -1.076436 -1.388467 -0.182269
-0.651813 0.013211 34.406198 -1.057513 -1.386465 -0.174143
-0.494514 -0.127032 33.779868 -0.989537 -1.352731 -0.162481
-0.088355 -0.185769 34.143476 -0.908280 -1.267141 -0.141052
-0.504434 -0.287569 34.210911 -0.870121 -1.346179 -0.149047
-0.093327 -0.184587 34.642658 -0.898312 -1.280229 -0.150613
-0.175862 -0.382119 35.541035 -0.923948 -1.286808 -0.163475
-0.160433 -0.448510 36.208765 -0.974177 -1.333408 -0.190016
-0.316940 -0.447558 36.938128 -1.000714 -1.388461 -0.203633
-0.341198 -0.749775 37.800194 -0.978030 -1.428748 -0.209477
-0.536736 -1.215084 38.591534 -0.948736 -1.480357 -0.210186
-0.530002 -1.515753 39.194968 -0.948954 -1.459759 -0.204645
-0.559182 -2.155798 39.989508 -0.901395 -1.421989 -0.201162
-0.687931 -2.764765 40.523342 -0.882708 -1.394862 -0.206676
-0.764056 -2.784505 40.658735 -0.905031 -1.390067 -0.213122
-0.752428 -2.793125 40.644129 -0.890625 -1.381976 -0.213206
-0.795718 -2.794257 40.708401 -0.861332 -1.394816 -0.214476
-0.894014 -2.753096 40.681552 -0.847608 -1.414754 -0.216931
-0.908220 -2.785555 40.564090 -0.847355 -1.409938 -0.217235
-1.043693 -2.924853 40.489264 -0.844678 -1.407261 -0.218264
-1.234157 -3.112793 40.513411 -0.829729 -1.419245 -0.223173
-1.472609 -3.299704 40.668220 -0.793987 -1.420391 -0.223533
-1.565512 -3.451976 40.923796 -0.757594 -1.413410 -0.222832
-1.554860 -3.373507 41.199470 -0.766352 -1.411706 -0.221631
-1.380874 -3.391623 41.665417 -0.769393 -1.402572 -0.215486
-1.293377 -3.424537 42.114451 -0.765110 -1.389737 -0.205357
-1.159284 -3.191191 42.498353 -0.806769 -1.353462 -0.201672
-1.203094 -3.123856 42.819669 -0.833097 -1.320510 -0.202369
-1.332792 -3.264531 43.333955 -0.834705 -1.289803 -0.201777
-1.478957 -3.316598 43.538072 -0.845966 -1.276969 -0.202722
-1.558639 -3.405347 43.706552 -0.851492 -1.266224 -0.202599
-1.694792 -3.581697 43.919967 -0.841416 -1.269677 -0.201437
-1.689560 -3.682372 44.099515 -0.840175 -1.256322 -0.196249
-1.652015 -3.741336 44.159992 -0.840269 -1.238461 -0.188560
-1.521043 -3.688021 44.177424 -0.857507 -1.212047 -0.182652
-1.540945 -3.667037 44.201277 -0.863734 -1.207155 -0.183205
-1.551355 -3.543886 44.237589 -0.870974 -1.183073 -0.181288
-1.472274 -3.393268 44.196360 -0.874999 -1.143769 -0.179448
-1.466749 -3.231237 44.188085 -0.876090 -1.127752 -0.179136
-1.456009 -3.079504 44.177765 -0.876715 -1.125638 -0.178915
-1.352525 -3.025342 44.138990 -0.867172 -1.109925 -0.172753
-1.315590 -2.965813 44.102614 -0.860158 -1.112898 -0.168944
-1.427101 -2.937134 44.045107 -0.855403 -1.140943 -0.170473
-1.482212 -2.920316 43.944597 -0.850469 -1.145801 -0.169504
-1.494423 -2.867559 43.795022 -0.854393 -1.149224 -0.172541
-1.533599 -2.805829 43.619347 -0.862889 -1.157334 -0.175172
-1.504767 -2.729672 43.431757 -0.874452 -1.159551 -0.177962
-1.352817 -2.612458 43.154591 -0.887084 -1.131666 -0.175431
-1.533110 -2.536455 42.903081 -0.895027 -1.155090 -0.178479
-1.587628 -2.440820 42.655785 -0.901406 -1.149936 -0.177255
-1.567339 -2.447656 42.462529 -0.897385 -1.129500 -0.172165
-1.369097 -2.400706 42.213308 -0.904944 -1.094266 -0.167012
-1.404175 -2.447286 41.999865 -0.903413 -1.104215 -0.166643
-1.375244 -2.502300 41.669954 -0.899115 -1.107957 -0.166731
-1.232204 -2.465089 41.303669 -0.890913 -1.087452 -0.158525
-1.240049 -2.378520 40.934885 -0.880262 -1.111787 -0.158497
-1.438917 -2.369942 40.539184 -0.848747 -1.163916 -0.161062
-1.271940 -2.245042 39.945759 -0.817575 -1.148720 -0.156918
-1.211703 -2.077223 39.378193 -0.819765 -1.143904 -0.152621
-1.140386 -1.884850 38.395374 -0.838733 -1.152815 -0.152466
-1.194435 -1.808817 37.772514 -0.834165 -1.151401 -0.146433
-1.204899 -1.747720 36.923067 -0.819041 -1.141638 -0.141956
-0.999179 -1.547935 35.898467 -0.808739 -1.093218 -0.132876
-1.033703 -1.391776 34.878432 -0.790097 -1.089898 -0.130175
-0.961117 -1.207461 33.852682 -0.791318 -1.095444 -0.132810
-0.723957 -1.211796 33.081848 -0.767129 -1.055702 -0.126179
-0.476664 -1.244153 32.169397 -0.748761 -1.028941 -0.130307
-0.640981 -1.208491 31.385456 -0.735846 -1.051950 -0.143268
-0.671703 -1.174900 30.644041 -0.712770 -1.026337 -0.148096
-0.711890 -1.096608 30.109958 -0.692688 -1.012775 -0.157505
-0.924447 -0.945635 29.496107 -0.689380 -1.039679 -0.172088
-0.883697 -0.781837 29.008043 -0.690003 -1.025884 -0.177167
-0.891363 -0.722635 28.728242 -0.684176 -1.029433 -0.179635
-0.937640 -0.612684 28.448727 -0.691721 -1.047180 -0.181601
-0.902934 -0.633250 28.355629 -0.687271 -1.065175 -0.185640
-0.875290 -0.637136 28.084828 -0.691472 -1.090016 -0.191941
-0.705922 -0.615653 28.027991 -0.702862 -1.108429 -0.203037
-0.695344 -0.645078 27.994826 -0.705496 -1.145033 -0.214201
-0.589830 -0.763664 27.943444 -0.694911 -1.164859 -0.220647
-0.596448 -0.871154 28.056876 -0.684565 -1.204980 -0.230099
-0.645604 -0.990757 28.112450 -0.673734 -1.235898 -0.234581
-0.729286 -1.128251 28.209049 -0.665426 -1.275242 -0.240933
-0.820747 -1.222960 28.239325 -0.664821 -1.305152 -0.244137
-0.637870 -1.246382 28.317138 -0.672128 -1.285463 -0.241933
-0.752880 -1.402863 28.544124 -0.661489 -1.317484 -0.247201
-0.868606 -1.485947 28.642790 -0.665258 -1.360621 -0.257082
-0.903488 -1.517924 28.882114 -0.667780 -1.371904 -0.258273
-0.887607 -1.662658 29.241453 -0.651156 -1.381274 -0.260064
-1.035726 -1.833032 29.543149 -0.635881 -1.426171 -0.267450
-1.017293 -1.920912 29.854847 -0.628908 -1.430602 -0.267713
-0.978021 -2.070583 30.240436 -0.609982 -1.419260 -0.265705
-1.056382 -2.306722 30.680906 -0.580089 -1.426777 -0.268496
-1.277997 -2.530254 31.003503 -0.558999 -1.458805 -0.275722
-1.374590 -2.694758 31.358786 -0.550869 -1.454735 -0.275294
-1.483975 -2.905283 31.558881 -0.552654 -1.469906 -0.278974
-1.512346 -3.011036 31.663453 -0.571511 -1.469959 -0.278418
-1.495242 -3.148378 31.695504 -0.588725 -1.464351 -0.276715
-1.493261 -3.217289 31.638852 -0.611958 -1.466173 -0.276586
-1.471516 -3.285905 31.531737 -0.617150 -1.473843 -0.276766
-1.336314 -3.389903 31.692601 -0.580315 -1.455302 -0.269336
-1.310827 -3.351134 31.395318 -0.557616 -1.467512 -0.266853
-1.287369 -3.054330 30.779085 -0.572274 -1.483619 -0.266922
-1.289925 -3.060840 30.442925 -0.567993 -1.472090 -0.262924
-1.263059 -3.203407 30.092845 -0.556007 -1.436714 -0.254131
-1.281602 -3.382906 29.772500 -0.537824 -1.405655 -0.247079
-1.413922 -3.375380 29.212178 -0.532932 -1.390640 -0.241811
-1.430741 -3.001620 28.295172 -0.552943 -1.372389 -0.238464
-1.375683 -2.533402 27.343273 -0.573758 -1.343691 -0.232519
-1.332443 -2.412317 26.773753 -0.571419 -1.330030 -0.232625
-1.438716 -2.320426 26.276115 -0.578336 -1.336620 -0.236645
-1.366848 -2.134415 25.638540 -0.599780 -1.311615 -0.239895
-1.396931 -2.117354 25.071031 -0.585508 -1.288515 -0.241989
-1.565553 -2.220918 24.870983 -0.537295 -1.277683 -0.240382
-1.643623 -2.187286 24.384512 -0.506638 -1.275510 -0.239732
-1.428849 -1.959133 23.828025 -0.512966 -1.253250 -0.234172
-1.391757 -1.932483 23.409259 -0.506966 -1.289757 -0.238543
-1.237977 -1.893358 22.912608 -0.510905 -1.301364 -0.240610
-1.125596 -1.635529 21.970844 -0.549349 -1.318843 -0.246459
-0.999959 -1.738110 21.533192 -0.514737 -1.308986 -0.242166
-1.006561 -1.698423 20.478625 -0.494145 -1.340523 -0.244316
-0.953879 -1.474575 19.510071 -0.481368 -1.322447 -0.233796
-0.893621 -1.839704 18.778739 -0.389067 -1.293852 -0.222026
-1.108027 -1.793665 17.418440 -0.375218 -1.337898 -0.227403
-1.143910 -1.425952 15.701998 -0.404007 -1.324439 -0.222065
-1.001101 -1.517843 14.707431 -0.351911 -1.281454 -0.210512
-1.153322 -1.995692 14.045295 -0.262593 -1.330291 -0.215101
-1.069071 -1.382050 12.169130 -0.323855 -1.362535 -0.220790
-0.793301 -0.750748 10.792438 -0.376588 -1.340865 -0.217462
-0.942956 -1.511189 10.768387 -0.215670 -1.370636 -0.214979
-0.999524 -1.624148 10.052908 -0.178136 -1.429321 -0.229700
-0.878768 -0.615060 8.106536 -0.300834 -1.459506 -0.243705
-0.756452 -1.173704 8.353966 -0.172534 -1.468765 -0.242837
-1.012711 -1.654947 8.350367 -0.073723 -1.547512 -0.252573
-1.050661 -0.742144 7.102051 -0.196379 -1.610168 -0.272509
-0.526721 -0.104390 6.269888 -0.283164 -1.583545 -0.281592
-0.910283 -0.860092 7.085261 -0.152937 -1.639140 -0.282122
-0.546180 -1.170113 7.350780 -0.101513 -1.615680 -0.282964
-0.689056 -0.004329 5.889340 -0.275201 -1.683205 -0.303167
-0.385685 0.036397 5.667037 -0.279262 -1.667652 -0.304887
-0.732736 -1.063899 6.486399 -0.103049 -1.696167 -0.291790
-0.500213 -0.774218 6.127589 -0.139983 -1.705431 -0.299031
-0.849174 -0.445044 5.313620 -0.184552 -1.759524 -0.306069
-0.810188 -0.937779 5.460596 -0.102317 -1.774108 -0.315222
-0.722409 -0.909807 5.301267 -0.080097 -1.709508 -0.300965
-1.070321 -0.426075 4.355412 -0.147713 -1.792357 -0.321894
-0.792291 -0.596798 4.003149 -0.110075 -1.682382 -0.299203
-0.964631 -0.933133 4.301659 -0.062883 -1.711844 -0.307342
-1.133665 -1.070595 4.075581 -0.047708 -1.735000 -0.313763
-0.796352 -0.677952 2.595399 -0.115369 -1.667608 -0.309648
-1.403388 -0.580323 2.304482 -0.114618 -1.753232 -0.322703
-1.360277 -1.088509 2.427488 -0.019003 -1.677712 -0.305212
-1.357865 -1.085254 2.046257 -0.024407 -1.661609 -0.305431
-1.679315 -0.774565 1.135921 -0.076627 -1.711009 -0.319965
-1.275158 -0.431380 0.485166 -0.118455 -1.622190 -0.316721
-1.850411 -0.738590 0.123234 -0.063812 -1.681496 -0.321326
-1.838765 -1.393748 0.938135 0.065812 -1.611770 -0.304715
-2.156667 -0.846164 -0.245349 -0.013324 -1.694851 -0.330197
-1.980104 -0.125292 -1.710231 -0.104710 -1.643545 -0.326891
-1.361802 -0.708585 -0.859726 0.024531 -1.474325 -0.296317
-2.177248 -1.448092 -0.580861 0.144231 -1.586504 -0.307547
-1.688934 -0.502491 -1.568870 0.035508 -1.505904 -0.306158
-2.526480 0.280868 -2.798814 -0.059553 -1.628392 -0.320890
-2.300326 -0.714223 -1.733853 0.111601 -1.558551 -0.304576
-1.809891 -1.153870 -1.129834 0.204931 -1.445453 -0.287127
-2.610042 0.213788 -2.543708 0.018754 -1.614002 -0.324877
-2.106058 0.260082 -3.221778 0.017265 -1.480301 -0.303036
-2.182893 -0.350354 -2.232841 0.119251 -1.493514 -0.307078
-2.443013 -0.610338 -1.670670 0.171473 -1.489960 -0.298833
-1.848778 -0.212966 -2.429463 0.106545 -1.401962 -0.293478
-1.917769 0.220804 -2.763800 0.038291 -1.443709 -0.306849
-2.567020 -0.498430 -2.206244 0.144123 -1.506743 -0.297834
-2.000645 -0.703619 -1.603988 0.170352 -1.439641 -0.291104
-2.309672 -0.297210 -1.969385 0.090657 -1.460939 -0.289968
-2.430469 -0.091949 -2.076236 0.024122 -1.484290 -0.293141
-1.606684 -0.434123 -0.930395 0.057120 -1.340156 -0.273436
-2.564895 -0.433030 -1.028892 0.003798 -1.480463 -0.285586
-1.998184 -0.509988 -0.454682 -0.050222 -1.391635 -0.271560
-2.090774 -0.508207 0.151549 -0.125923 -1.397432 -0.265649
-2.120070 -0.503131 1.057229 -0.231329 -1.416687 -0.269575
-1.108185 -0.895926 2.235691 -0.247703 -1.263903 -0.253597
-1.944743 -1.032219 3.562525 -0.285032 -1.401694 -0.275261
-2.090242 -0.266887 3.267733 -0.442342 -1.458663 -0.298258
-2.076016 0.006019 3.887392 -0.495331 -1.398538 -0.283436
-2.197948 -0.619540 6.099603 -0.428557 -1.413061 -0.287950
-1.740675 -0.999814 6.978890 -0.430647 -1.337135 -0.291918
-2.280467 -0.168906 6.706371 -0.630969 -1.441429 -0.331241
-2.426097 -0.758876 8.076607 -0.609372 -1.446842 -0.349375
-2.583323 -1.846895 9.856422 -0.480374 -1.476668 -0.346465
-2.573847 -1.442987 8.830202 -0.601816 -1.548511 -0.353649
-1.978187 -1.202207 8.496071 -0.640944 -1.475728 -0.333330
-2.662574 -1.983561 8.400376 -0.497958 -1.611460 -0.338301
-2.273616 -1.974257 7.610819 -0.470669 -1.548402 -0.327885
-2.309650 -1.312646 5.576715 -0.527714 -1.596411 -0.340950
-2.260860 -1.152741 3.784676 -0.487247 -1.577903 -0.337932
-1.894304 -2.204368 3.979845 -0.236776 -1.418288 -0.307475
-2.408519 -2.006869 2.636981 -0.191355 -1.482357 -0.330106
-2.372471 -0.451062 -0.300054 -0.340503 -1.427394 -0.334109
-2.104507 -0.951636 0.001060 -0.152695 -1.289391 -0.301065
-2.624505 -1.296351 -0.181236 -0.009929 -1.356155 -0.287090
-2.309434 -0.181762 -1.623325 -0.065877 -1.254903 -0.239954
-2.039191 0.327159 -2.121755 -0.058627 -1.201185 -0.218331
-2.276187 0.129078 -2.926338 0.003453 -1.238975 -0.213029
-2.133434 -0.649349 -1.602389 0.178658 -1.168353 -0.191111
-2.232565 -0.024519 -3.049459 0.082711 -1.232030 -0.215607
-2.229023 0.221923 -2.469729 0.091251 -1.184949 -0.200433
-2.367217 -0.427008 -2.990693 0.169620 -1.256799 -0.218923
-2.510253 0.004640 -1.979054 0.158407 -1.234803 -0.208993
-2.063854 -0.115965 -2.905886 0.148389 -1.204111 -0.216054
-2.079925 0.638487 -3.290028 0.054670 -1.220967 -0.224938
-2.060433 0.218825 -2.405400 0.129001 -1.188188 -0.214946
-2.109933 0.022167 -2.840383 0.129432 -1.223775 -0.226784
-2.207036 0.503631 -2.678039 0.086978 -1.221610 -0.223100
-2.130090 0.119041 -2.792535 0.127068 -1.212006 -0.223170
-2.179606 0.518752 -3.423792 0.066292 -1.222739 -0.226390
-2.061681 0.386138 -2.681884 0.095542 -1.182633 -0.216723
-2.094823 -0.221851 -2.613466 0.167335 -1.221103 -0.227383
-2.098367 0.144970 -2.632841 0.128905 -1.178492 -0.216935
-1.788144 0.022381 -2.526188 0.156724 -1.165053 -0.222120
-2.012233 0.207322 -2.834149 0.126674 -1.198071 -0.226086
-1.958963 -0.059209 -2.475630 0.184709 -1.172365 -0.218823
-2.020073 0.139698 -2.793742 0.149694 -1.196801 -0.227308
-2.041586 0.366650 -2.622498 0.141816 -1.186436 -0.219697
-1.948258 0.463762 -3.365717 0.107919 -1.195908 -0.224429
-1.875225 0.516497 -2.715931 0.121251 -1.146973 -0.207011
-1.847167 0.162487 -2.971451 0.151695 -1.173200 -0.213588
-1.937756 0.223196 -2.918071 0.140541 -1.142056 -0.200407
-1.717738 0.145349 -2.939856 0.147287 -1.131315 -0.205261
-1.907797 0.414705 -2.991899 0.115348 -1.134580 -0.203293
-1.863285 0.224635 -2.727312 0.149366 -1.131838 -0.202144
-1.916276 -0.036812 -3.010398 0.171370 -1.144953 -0.203611
-1.916102 0.400073 -2.638094 0.136918 -1.124570 -0.193255
-1.891251 0.031658 -2.769767 0.176921 -1.130127 -0.192405
-1.905266 0.402534 -3.053168 0.126767 -1.127923 -0.190392
-1.834221 0.158882 -2.622243 0.174439 -1.107292 -0.180154
-1.842323 0.305425 -2.995100 0.143180 -1.125337 -0.185760
-1.809488 0.399594 -2.697432 0.141590 -1.099938 -0.177892
-1.772765 0.025111 -2.895947 0.174225 -1.109753 -0.185174
-1.921200 0.530614 -3.152549 0.101602 -1.131585 -0.190102
-1.851761 0.074907 -2.702021 0.167749 -1.096766 -0.175826
-1.913780 0.087413 -2.963818 0.162541 -1.129465 -0.180748
-1.881823 0.203980 -2.514229 0.166613 -1.094711 -0.167408
-1.809063 -0.109360 -2.579171 0.204188 -1.104737 -0.172124
-1.849800 0.479400 -3.170719 0.123594 -1.128897 -0.182427
-1.755813 0.139344 -2.453355 0.192490 -1.097229 -0.175441
-1.857170 0.160574 -2.857612 0.174450 -1.146506 -0.195530
-1.920389 0.360741 -2.604615 0.156650 -1.131412 -0.190089
-1.868575 0.071207 -2.947339 0.183115 -1.136572 -0.193647
-1.874219 0.362878 -3.011063 0.141587 -1.114537 -0.187418
-1.755970 0.078741 -2.766856 0.177384 -1.097571 -0.183677
-1.846196 0.276239 -3.196656 0.135722 -1.102566 -0.183214
-1.735025 0.280268 -2.862481 0.141951 -1.067130 -0.176635
-1.863254 0.462398 -3.353206 0.096558 -1.084427 -0.179999
-1.617130 0.461642 -3.206530 0.102985 -1.050007 -0.180525
-1.824382 0.345354 -2.884865 0.142189 -1.038461 -0.168891
-1.740164 0.454029 -3.197989 0.117738 -1.038086 -0.177175
-1.777432 0.281925 -2.900452 0.147484 -0.999198 -0.165485
-1.695617 0.383138 -2.586989 0.140951 -0.963924 -0.157050
-1.710592 0.531224 -3.143384 0.110745 -0.962779 -0.156865
-1.756290 0.659147 -3.643375 0.080837 -0.962468 -0.156957
-1.689750 0.815581 -3.053317 0.074555 -0.927709 -0.141201
-1.645362 0.250123 -2.513947 0.148504 -0.883161 -0.121611
-1.412411 0.413809 -2.313583 0.137569 -0.829886 -0.107501
-1.657655 0.501732 -2.746242 0.100643 -0.856948 -0.109989
-1.806888 0.786950 -3.116062 0.051210 -0.869261 -0.105604
-1.738834 0.378812 -2.748104 0.129180 -0.833204 -0.088570
-1.591935 0.312375 -3.161272 0.123673 -0.812106 -0.083780
-1.721266 0.303367 -2.590012 0.138221 -0.808994 -0.075006
-1.722614 0.823869 -2.915552 0.068114 -0.844498 -0.086310
-1.778616 0.848452 -3.235864 0.046106 -0.843735 -0.088229
-1.586104 1.094300 -3.152651 0.025538 -0.824914 -0.088592
-1.705399 0.725179 -2.804278 0.073620 -0.837134 -0.091420
-1.700402 0.138631 -2.159300 0.156983 -0.802305 -0.083821
-1.765918 -0.014864 -1.999753 0.178494 -0.801605 -0.090001
-1.852652 0.283938 -2.514728 0.144650 -0.811779 -0.098638
-1.789365 0.660760 -3.182328 0.092033 -0.821977 -0.109257
-1.869112 0.731016 -3.198602 0.075416 -0.853582 -0.122527
-1.875480 0.920682 -2.966707 0.064939 -0.865768 -0.129320
-1.700867 0.728681 -2.869889 0.091244 -0.825677 -0.120336
-1.595183 0.480026 -2.857226 0.135936 -0.804448 -0.119417
-1.760026 0.925835 -2.948214 0.065523 -0.813853 -0.124091
-1.811381 1.010140 -3.711886 0.029821 -0.837036 -0.134320
-1.743994 1.161256 -2.926492 0.030030 -0.800325 -0.120182
-1.767562 0.477857 -2.662896 0.124217 -0.782815 -0.109087
-1.857483 0.721520 -3.206500 0.097533 -0.826033 -0.120228
-1.726233 0.314380 -1.859436 0.200739 -0.766098 -0.103497
-1.698590 0.308797 -1.862086 0.207447 -0.798417 -0.114804
-1.810708 -0.448051 -1.347448 0.325041 -0.821724 -0.118168
-1.722106 0.301779 -1.920070 0.214373 -0.850242 -0.132862
-1.595244 0.177335 -2.572978 0.211795 -0.838975 -0.133040
-1.600757 1.124256 -3.278055 0.067015 -0.873483 -0.144687
-1.472819 0.985307 -2.764108 0.080533 -0.841403 -0.136260
-1.571880 1.414194 -3.495337 -0.011361 -0.878503 -0.147056
-1.494538 2.026287 -3.321138 -0.091495 -0.840521 -0.139448
-1.493975 1.941105 -3.409468 -0.087212 -0.863220 -0.152148
-1.562274 2.003118 -3.382815 -0.076829 -0.845597 -0.149173
-1.486632 1.695058 -2.943988 -0.009333 -0.844138 -0.155815
-1.581172 1.546856 -2.998589 0.033031 -0.828874 -0.150129
-1.392715 1.109666 -2.319162 0.115233 -0.790021 -0.142288
-1.644976 1.093900 -2.979298 0.105692 -0.828307 -0.144465
-1.502072 0.827133 -2.358344 0.152193 -0.791348 -0.133117
-1.595940 0.645177 -2.797118 0.139438 -0.783675 -0.123798
-1.202888 0.971141 -3.048336 0.067770 -0.740826 -0.122875
-1.273295 0.577013 -2.310452 0.131014 -0.688993 -0.096873
-1.318108 1.039787 -3.392845 0.038470 -0.734897 -0.110993
-1.257104 1.043943 -2.543888 0.078486 -0.716218 -0.105756
-1.607842 0.566615 -2.827809 0.150685 -0.755132 -0.101939
-1.643494 1.284841 -3.229433 0.062919 -0.807882 -0.118167
-1.557223 0.667407 -2.902438 0.166255 -0.779187 -0.106390
-1.520639 0.491920 -3.027040 0.172321 -0.758553 -0.100189
-1.574940 1.122864 -3.190457 0.054298 -0.770102 -0.106440
-1.519587 1.241473 -3.406503 0.011795 -0.757230 -0.110088
-1.381444 1.368161 -3.581602 -0.009354 -0.725328 -0.106488
-1.404142 0.979324 -3.214729 0.049482 -0.698253 -0.095090
-1.374829 1.076354 -3.118737 0.059005 -0.710646 -0.099306
-1.505660 0.535181 -2.933940 0.167465 -0.725186 -0.098193
-1.553307 1.041220 -2.613882 0.123113 -0.722258 -0.097910
-1.605124 1.177810 -3.093119 0.104111 -0.752032 -0.109730
-1.644376 0.597288 -2.509366 0.159274 -0.720465 -0.101122
-1.679459 1.155202 -2.283824 0.076318 -0.694897 -0.094193
-1.617854 1.226255 -3.546261 0.020232 -0.732064 -0.114238
-1.687880 0.629792 -2.836158 0.118457 -0.696731 -0.097297
-1.747817 1.078732 -2.916307 0.074989 -0.718933 -0.103769
-1.552776 0.959020 -3.278404 0.102034 -0.724938 -0.111655
-1.501667 0.616446 -2.530702 0.199416 -0.699534 -0.102174
-1.695013 1.333937 -2.835704 0.089892 -0.747685 -0.116482
-1.501969 1.335998 -3.143946 0.076946 -0.749435 -0.123609
-1.762452 1.332775 -3.020243 0.062336 -0.757675 -0.115695
-1.636299 1.306759 -2.932096 0.045874 -0.752549 -0.119072
-1.984717 1.593212 -3.023522 0.002596 -0.775393 -0.113285
-1.573681 1.069876 -3.121862 0.076302 -0.739894 -0.115526
-1.928392 0.777852 -2.492274 0.128113 -0.774273 -0.119617
-1.970908 1.170937 -2.798135 0.065317 -0.806952 -0.141717
-1.951797 0.491022 -1.666756 0.156445 -0.789534 -0.150445
-1.835890 -0.191179 -1.731036 0.219287 -0.812019 -0.171475
-2.117516 0.678309 -1.560394 0.074469 -0.870186 -0.177599
-1.766111 1.182794 -2.031526 -0.097648 -0.876342 -0.185078
-2.213628 1.016688 -1.738974 -0.178064 -0.929127 -0.192063
-2.106536 -0.051486 -0.509076 -0.117633 -0.953778 -0.207880
-2.620165 -0.103502 -0.145628 -0.138385 -1.053462 -0.220665
-2.286718 0.300725 -0.675047 -0.236612 -1.109331 -0.246604
-2.225326 0.242345 -0.487291 -0.224181 -1.224745 -0.289263
-2.588487 -0.522929 0.529340 -0.116468 -1.344446 -0.344653
-2.641706 -0.355505 0.022840 -0.202427 -1.385809 -0.384796
-3.071541 -0.307904 0.783816 -0.221857 -1.479988 -0.430504
-3.244475 -0.881988 0.231867 -0.216446 -1.543558 -0.454832
-2.916530 0.037936 0.165992 -0.329603 -1.543979 -0.468812
-2.869781 -0.159323 -1.427589 -0.420248 -1.588272 -0.497944
-2.505629 -0.054441 1.532918 -0.325604 -1.517783 -0.475419
-3.247834 -1.775317 1.013491 -0.110285 -1.678877 -0.509582
-3.807960 0.649049 0.666773 -0.396422 -1.842435 -0.541340
-2.804818 0.494661 -0.709298 -0.429750 -1.670700 -0.514391
-3.104174 -0.180753 1.990773 -0.297236 -1.730195 -0.504847
-3.325797 0.141762 -0.454147 -0.472144 -1.856672 -0.528874
-2.582246 -0.857999 -0.192535 -0.363022 -1.643237 -0.469652
-2.797404 0.662982 0.395941 -0.581554 -1.829042 -0.511380
-3.824532 -0.883695 1.399702 -0.437693 -1.869294 -0.497633
-2.506822 -0.193797 10.331619 -0.635207 -1.761628 -0.487103
-2.686325 0.424192 26.540746 -0.899463 -1.896572 -0.465222
-1.525908 -0.968457 48.457214 -1.121019 -1.962735 -0.467967
-2.236570 -2.226554 72.843190 -1.508852 -2.290863 -0.454373
-0.216773 -4.438368 91.432504 -1.808934 -2.201410 -0.392471
0.084519 -8.496538 103.690015 -1.907276 -2.415684 -0.379746
-0.004999 -11.494308 109.533605 -2.053280 -2.468283 -0.352908
-1.427895 -13.708637 103.158005 -2.115141 -2.310246 -0.322667
-2.313397 -15.828495 89.607297 -1.915204 -1.835370 -0.303447
-5.202388 -13.846781 70.462204 -2.044980 -1.439073 -0.285931
-5.291888 -11.684738 49.296614 -2.283008 -0.617702 -0.249277
-5.692113 -11.545426 31.545513 -1.824356 -0.288911 -0.232137
-3.897499 -7.807468 22.288077 -1.442299 -0.135181 -0.179009
-3.077526 -4.478640 11.652408 -0.980529 -0.271628 -0.184714
-1.372495 -1.351551 7.001457 -0.537284 -0.261030 -0.154689
-1.725825 -2.097572 4.978655 0.096636 -0.503885 -0.142426
-0.885252 -0.720737 2.328556 0.199628 -0.535449 -0.135628
-0.639609 0.458923 0.146498 0.095289 -0.522686 -0.109917
-1.880273 0.766600 -1.478509 -0.096023 -0.739918 -0.105869
-2.044926 0.274118 -3.516814 -0.202156 -0.687382 -0.056873
-2.594295 1.041259 -3.896536 -0.368164 -0.726268 -0.034192
-1.584338 1.161073 -3.343489 -0.325802 -0.573579 -0.013213
-1.513633 0.573743 -2.661129 -0.133266 -0.594168 -0.033818
-0.318354 0.598376 -2.443144 0.008895 -0.452025 -0.038621
-0.146284 0.653319 -1.000920 0.202728 -0.473717 -0.056194
-0.554620 1.071584 -2.055889 0.141213 -0.626664 -0.106866
-0.208922 2.673730 -3.253278 -0.175699 -0.506565 -0.084728
-0.782723 1.597972 -2.806980 -0.196017 -0.605934 -0.093444
-1.480774 1.237721 -3.736295 -0.282496 -0.729846 -0.094617
-1.374591 1.451727 -3.469270 -0.340345 -0.755835 -0.100389
-1.713998 1.314746 -3.532693 -0.342115 -0.871320 -0.133033
-1.445310 0.569219 -2.474032 -0.184314 -0.846903 -0.139780
-1.339020 -0.632003 -0.842955 0.061288 -0.815431 -0.145490
-1.318197 0.150586 -0.699762 0.047324 -0.879883 -0.178685
-1.021132 0.542955 -1.885060 0.035119 -0.878349 -0.191945
-0.792731 2.878665 -3.632216 -0.302778 -0.828351 -0.184433
-0.389476 2.200756 -3.068334 -0.293719 -0.757365 -0.162367
-0.055491 1.523206 -2.371906 -0.261387 -0.657224 -0.134124
-0.465894 2.176538 -3.376024 -0.418200 -0.827736 -0.187118
-1.085208 1.553868 -2.514008 -0.352543 -0.872351 -0.197714
-2.021810 -0.088259 -1.798283 -0.146095 -1.090957 -0.250494
-2.226235 -0.406633 -0.584144 -0.046880 -1.159364 -0.271838
-2.060147 -0.232010 -0.584625 -0.015954 -1.104754 -0.251324
-2.409452 1.675653 -1.897638 -0.258723 -1.231517 -0.272210
-1.528139 1.837527 -2.270807 -0.298176 -1.099654 -0.246879
-1.759599 1.933872 -1.614706 -0.311246 -1.046938 -0.238885
-1.688700 3.160384 -3.013166 -0.534329 -1.094302 -0.273163
-0.487075 1.830774 -2.855805 -0.410581 -0.890760 -0.251469
-1.751862 0.837851 -1.120346 -0.267986 -1.025240 -0.259344
-1.664696 0.691339 -1.902394 -0.292213 -1.123524 -0.309482
-2.124494 0.601100 -0.580634 -0.242824 -1.114977 -0.304872
-2.507005 0.987798 -1.184852 -0.314746 -1.264405 -0.354902
-2.241514 1.708630 -1.771744 -0.422615 -1.228059 -0.373076
-2.274355 2.442022 -1.315501 -0.528245 -1.197075 -0.397732
-2.512693 2.953439 -2.479426 -0.680283 -1.290216 -0.455766
-2.167974 2.322034 -1.649648 -0.619545 -1.160062 -0.434998
-2.352089 2.037608 -1.646135 -0.598160 -1.162679 -0.434963
-2.069528 1.475049 -1.516085 -0.521631 -1.184139 -0.460901
-2.062913 1.137912 -0.265400 -0.417586 -1.107689 -0.442928
-2.066215 0.749396 -1.712463 -0.397089 -1.214804 -0.493938
-2.415341 1.218670 -0.365271 -0.411927 -1.240045 -0.503907
-2.778960 1.395053 -1.893497 -0.473028 -1.324972 -0.521420
-2.317634 2.228402 -1.399286 -0.579564 -1.241183 -0.499549
-2.752956 2.672324 -1.750851 -0.679010 -1.313603 -0.504366
-2.262116 2.251415 -1.911695 -0.650295 -1.225956 -0.486514
-2.435720 2.100384 -1.756793 -0.631049 -1.262803 -0.492454
-2.558829 1.755536 -0.881503 -0.547905 -1.229503 -0.468020
-2.125464 0.845152 -0.870143 -0.426713 -1.187921 -0.460267
-2.373296 1.826799 -1.364034 -0.534767 -1.206675 -0.451425
-1.708201 1.223308 -1.091655 -0.429097 -1.109532 -0.423492
-2.117440 1.771377 -1.707331 -0.504899 -1.171576 -0.423528
-2.009453 2.812695 -1.923832 -0.650254 -1.145790 -0.416570
-2.131896 2.099158 -1.484907 -0.571645 -1.133954 -0.403006
-2.241832 2.217703 -1.574297 -0.608996 -1.175785 -0.406140
-2.262307 2.250799 -1.988310 -0.620464 -1.139081 -0.382528
-1.935240 1.610468 -1.333596 -0.523622 -1.097186 -0.361354
-2.041862 1.102157 -0.878793 -0.438352 -1.075826 -0.332359
-1.800224 1.375647 -1.223191 -0.453178 -1.050655 -0.313703
-1.726527 2.102528 -1.882716 -0.528680 -1.039171 -0.299006
-1.483922 2.212896 -2.031540 -0.521288 -0.986981 -0.275784
-1.521269 1.881340 -1.616128 -0.459153 -0.994506 -0.266281
-1.741921 2.080103 -1.721122 -0.480767 -1.024252 -0.260986
-1.651956 1.897573 -1.928118 -0.454211 -1.013602 -0.251080
-1.737351 1.382404 -1.769391 -0.379554 -1.030906 -0.242025
-1.984768 0.889566 -1.319437 -0.306797 -1.068979 -0.236285
-1.828066 0.855672 -1.410681 -0.301004 -1.031790 -0.225915
-1.718955 0.728163 -1.342402 -0.281798 -1.015328 -0.222162
-1.917122 0.714145 -1.315899 -0.273618 -1.038982 -0.221184
-1.794158 0.969708 -1.479242 -0.308092 -1.007601 -0.214166
-1.558640 0.945432 -1.447157 -0.307514 -0.966428 -0.205690
-1.548332 0.585744 -1.149574 -0.258922 -0.960829 -0.198813
-1.722014 0.720718 -1.695216 -0.294923 -1.013633 -0.207194
-1.705502 0.700784 -1.222330 -0.291101 -0.987952 -0.196701
-1.771874 -0.734703 -0.237875 -0.101350 -1.015443 -0.198764
-2.161138 -0.173872 -0.835416 -0.212212 -1.104426 -0.214560
-1.985685 0.189414 -1.127619 -0.288440 -1.082275 -0.210260
-1.900809 -0.046434 -0.900375 -0.277393 -1.075626 -0.207351
-2.111901 -0.051263 -0.806803 -0.291583 -1.139373 -0.216871
-1.927592 0.444881 -1.119649 -0.355556 -1.100009 -0.202778
-1.758195 0.119803 -0.644425 -0.304222 -1.108811 -0.199667
-2.039790 -0.012550 -0.382910 -0.283550 -1.183704 -0.201412
-1.840934 -0.226850 -0.468968 -0.273556 -1.175558 -0.201597
-1.964018 0.149121 -0.744027 -0.352964 -1.236021 -0.219857
-2.229761 -0.451808 -0.275404 -0.289672 -1.296659 -0.228232
-2.190566 -0.361754 -0.092421 -0.328616 -1.339071 -0.241420
-2.533115 0.083095 -0.464344 -0.389686 -1.410062 -0.251894
-2.059340 0.087090 -0.068352 -0.384583 -1.386324 -0.260026
-2.520867 0.657781 -0.557956 -0.467315 -1.487261 -0.288400
-2.216788 0.019719 -0.657934 -0.409507 -1.468442 -0.307569
-2.640977 -0.011687 0.921379 -0.367456 -1.519225 -0.320237
-2.681111 -0.179332 0.157182 -0.391893 -1.569221 -0.336475
-2.377660 -0.069386 0.281251 -0.405183 -1.533913 -0.341241
-2.755573 -0.241591 0.436473 -0.389646 -1.599677 -0.363445
-2.428039 -0.787549 1.188484 -0.329262 -1.566702 -0.393416
-3.314723 -0.027890 0.707655 -0.417919 -1.751316 -0.453693
-3.329948 0.253351 0.020016 -0.465156 -1.806196 -0.495558
-2.631692 -0.357889 -0.155453 -0.408407 -1.674972 -0.481770
-3.122362 -0.632627 1.333521 -0.344968 -1.729864 -0.482440
-2.750322 -0.362071 1.212065 -0.368935 -1.711665 -0.483190
-3.108731 0.403048 0.934455 -0.484892 -1.811254 -0.500914
-3.158450 0.129906 -0.308401 -0.596849 -1.849483 -0.509112
-3.437252 0.587216 4.515601 -0.708265 -1.812533 -0.484274
-2.991092 -1.131786 11.743652 -0.656892 -1.678753 -0.462425
-3.446640 -1.581452 18.588037 -0.903276 -1.825404 -0.491539
-3.165861 -2.040369 26.508819 -1.308305 -1.842431 -0.491792
-3.448669 -3.818046 38.961839 -1.570489 -1.860393 -0.463508
-3.348761 -7.064816 50.930308 -1.754281 -1.848060 -0.445299
-3.263328 -7.939774 59.374514 -2.231749 -1.774193 -0.418406
-3.746147 -9.460442 65.277542 -2.616072 -1.719083 -0.389385
-4.580334 -12.051618 71.682054 -2.664623 -1.556313 -0.346065
-5.294237 -14.466263 75.219053 -2.551043 -1.244881 -0.285768
-6.174166 -15.038983 73.208119 -2.576401 -1.119756 -0.287301
-6.141513 -14.050350 68.020912 -2.628829 -0.827429 -0.264315
-5.318127 -14.744490 63.439855 -2.318199 -0.404968 -0.221930
-7.192300 -14.174309 57.810412 -2.082456 -0.446824 -0.226747
-7.653176 -11.491896 48.828045 -2.169542 -0.283181 -0.196295
-7.573890 -10.108017 40.878313 -2.071896 -0.088630 -0.190755
-8.257832 -10.048572 35.690476 -1.762931 -0.044054 -0.184344
-7.645069 -8.295193 29.915808 -1.715359 0.129475 -0.151058
-7.016988 -7.497338 25.495333 -1.559441 0.180486 -0.139583
-7.381901 -7.454104 22.857828 -1.369567 0.021667 -0.146977
-7.947963 -6.855219 20.866662 -1.290670 -0.154494 -0.145632
-6.569498 -6.195167 19.116338 -1.279611 -0.146382 -0.137914
-5.909176 -5.838064 18.574772 -1.260273 -0.233093 -0.114464
-4.952356 -5.295207 19.809543 -1.330313 -0.215425 -0.050609
-4.557846 -5.024220 22.396133 -1.402062 -0.247169 -0.016060
-5.436891 -5.456999 24.093571 -1.517179 -0.635691 -0.048365
-3.650502 -4.853139 28.650146 -1.670540 -0.447637 0.008707
-2.719551 -5.876805 32.423679 -1.681872 -0.631338 -0.008493
-2.531581 -5.659331 36.126240 -1.835841 -0.849745 -0.016916
-1.260095 -6.444918 39.953411 -1.839052 -0.865544 0.004599
-1.636802 -6.734283 43.169658 -1.935995 -1.176854 -0.030575
-0.510174 -7.218612 46.153926 -1.940843 -1.058757 -0.018300
-0.552620 -7.697241 48.750931 -1.956064 -1.116385 -0.061891
-1.218152 -7.337479 50.673604 -2.014528 -1.224022 -0.123415
-1.215561 -6.837207 51.084955 -2.007673 -1.111316 -0.135621
-2.034353 -6.759473 51.200726 -1.905472 -1.182823 -0.170866
-1.961652 -5.890250 50.087478 -1.916652 -1.107528 -0.186845
-1.718415 -5.225088 48.334665 -1.873108 -0.928761 -0.184252
-2.529547 -5.161579 46.898215 -1.751520 -1.006557 -0.216311
-3.013588 -5.254221 45.798036 -1.563108 -0.907798 -0.197280
-3.223140 -4.412160 43.544217 -1.522699 -0.944875 -0.222486
-3.541000 -3.385012 40.696306 -1.501560 -0.893081 -0.212039
-3.776461 -3.126671 39.955150 -1.390557 -0.856755 -0.210945
-4.329553 -2.878864 39.127167 -1.316744 -0.876857 -0.226625
-3.930165 -2.533332 38.510493 -1.267568 -0.692253 -0.206619
-4.922314 -2.130759 37.782476 -1.285220 -0.850758 -0.238890
-4.182898 -2.379233 38.129317 -1.220836 -0.705066 -0.211645
-4.492618 -2.602116 38.819679 -1.210602 -0.752880 -0.203531
-3.798560 -2.757132 40.096893 -1.240123 -0.694072 -0.193323
-3.905226 -3.017041 40.957360 -1.280715 -0.718936 -0.188386
-3.656856 -3.190007 42.498818 -1.331692 -0.699735 -0.184959
-3.488012 -3.388648 43.973403 -1.351410 -0.718215 -0.189029
-3.529483 -3.819290 45.270037 -1.350379 -0.767208 -0.192786
-3.371042 -3.849227 46.085488 -1.411954 -0.779980 -0.190623
-3.450628 -3.675015 46.691034 -1.530571 -0.849962 -0.196398
-3.275179 -4.032285 48.075453 -1.557710 -0.853641 -0.188837
-3.145128 -5.134909 50.341205 -1.476123 -0.814288 -0.164794
-2.928175 -5.348219 51.280732 -1.549790 -0.847496 -0.173837
-2.784641 -5.066543 51.676133 -1.683784 -0.862937 -0.178902
-2.467324 -5.408498 52.846644 -1.693500 -0.804162 -0.162818
-2.376524 -6.316403 54.662827 -1.624231 -0.797798 -0.158314
-2.880458 -6.712102 55.677504 -1.641688 -0.873349 -0.164920
-2.914867 -7.045212 56.762267 -1.659617 -0.829016 -0.153461
-2.803711 -7.394149 58.110962 -1.680590 -0.775043 -0.148388
-3.349107 -7.229868 58.166608 -1.809281 -0.864447 -0.168209
-3.245165 -7.362425 59.081591 -1.845855 -0.748060 -0.146802
-2.951350 -8.218984 60.920920 -1.767932 -0.643694 -0.140598
-3.875024 -8.766781 61.916564 -1.734493 -0.727081 -0.155156
-4.010284 -7.925633 61.276611 -1.861078 -0.620477 -0.148946
-3.860077 -7.844238 61.356349 -1.853651 -0.518502 -0.140355
-5.148739 -8.637077 61.882926 -1.686978 -0.528934 -0.137351
-5.562488 -8.677558 61.372022 -1.621611 -0.437650 -0.141090
-4.925241 -8.251547 60.005218 -1.634953 -0.190393 -0.114613
-6.328903 -8.311021 58.940875 -1.579110 -0.394518 -0.144686
-5.584195 -8.705042 58.513456 -1.461257 -0.255204 -0.135901
-6.249542 -8.145388 56.550728 -1.437002 -0.368684 -0.149622
-5.646370 -7.270629 54.963078 -1.464520 -0.352691 -0.168306
-6.148138 -6.824994 53.875481 -1.398951 -0.414421 -0.160000
-5.886400 -6.682758 53.416945 -1.275572 -0.420879 -0.137508
-5.468343 -5.970842 52.667473 -1.264128 -0.425875 -0.118089
-5.881246 -5.386843 51.778669 -1.277648 -0.597371 -0.130372
-4.261273 -5.324796 51.489898 -1.186584 -0.372960 -0.083582
-4.920518 -4.825776 50.944451 -1.162491 -0.625776 -0.102349
-3.869164 -4.235704 49.938610 -1.117958 -0.514663 -0.062808
-3.350710 -3.566276 48.968791 -1.095215 -0.573999 -0.067271
-3.528858 -3.348223 48.269843 -1.018700 -0.710307 -0.078345
-2.046396 -2.986219 47.463860 -0.966360 -0.558283 -0.062300
-3.077142 -2.518209 45.914707 -0.987700 -0.839879 -0.107871
-2.187334 -2.606794 45.497835 -0.850179 -0.717195 -0.080356
-2.224471 -2.311406 44.685092 -0.765303 -0.760358 -0.072331
-2.502546 -1.829639 43.634605 -0.727722 -0.884653 -0.078887
-2.086876 -1.764816 43.177323 -0.638571 -0.831817 -0.056365
-1.753144 -1.443925 42.824814 -0.599998 -0.791256 -0.036077
-1.789538 -1.389310 42.487570 -0.573100 -0.848292 -0.043091
-1.810430 -1.374145 42.264223 -0.576203 -0.859292 -0.045893
-1.857773 -1.585491 42.266928 -0.566570 -0.866752 -0.051973
-1.904403 -2.033670 42.364494 -0.523189 -0.938201 -0.074764
-2.173944 -2.093537 42.274785 -0.523400 -1.063442 -0.098680
-1.958011 -2.294391 42.404688 -0.518545 -1.093973 -0.106177
-2.735261 -3.061007 43.132746 -0.481346 -1.285066 -0.130592
-2.979744 -3.601847 44.158969 -0.483820 -1.366155 -0.139674
-2.755341 -3.928771 45.021129 -0.511339 -1.393054 -0.144151
-2.737511 -4.167994 46.174293 -0.556157 -1.524962 -0.173059
-2.537625 -4.276335 47.710764 -0.603266 -1.599274 -0.196821
-2.647305 -5.025450 50.062530 -0.582013 -1.638158 -0.219199
-3.414185 -5.701243 51.798823 -0.601048 -1.715537 -0.239899
-3.728243 -5.352799 51.779472 -0.789690 -1.714227 -0.251468
-3.651009 -5.152782 51.087568 -0.898515 -1.632667 -0.251634
-4.050992 -5.532017 51.130136 -0.801543 -1.556299 -0.240912
-4.107345 -5.413663 49.577259 -0.728600 -1.484771 -0.233634
-4.216743 -4.802563 46.682066 -0.752360 -1.519752 -0.252173
-3.774375 -3.768562 41.952499 -0.886683 -1.567067 -0.281272
-2.833383 -4.567102 38.361360 -0.715339 -1.480578 -0.269609
-2.668930 -4.828266 34.758477 -0.673188 -1.587737 -0.312440
-2.274921 -4.096249 31.060031 -0.662853 -1.535307 -0.317829
-2.103164 -3.603623 26.738659 -0.597650 -1.559556 -0.324070
-1.671079 -3.195918 22.855755 -0.553566 -1.614487 -0.347030
-1.219535 -3.135347 19.856890 -0.461335 -1.542348 -0.327670
-1.083437 -2.292666 16.763935 -0.529342 -1.618774 -0.340074
-0.831609 -2.485026 14.066357 -0.473764 -1.714490 -0.347640
-0.989629 -2.885379 12.823457 -0.308762 -1.698208 -0.300556
-0.668613 -2.339778 9.954135 -0.372617 -1.801517 -0.329584
-0.977499 -2.416015 9.099337 -0.274869 -1.784329 -0.309084
-0.857139 -2.630038 7.468141 -0.203447 -1.732480 -0.298822
-1.171736 -2.090870 5.438821 -0.251736 -1.854455 -0.332506
-1.468052 -2.194596 5.510975 -0.140326 -1.786586 -0.298011
-1.756846 -1.416307 3.152124 -0.216042 -1.818999 -0.309475
-0.321746 -0.988449 2.272555 -0.216865 -1.609750 -0.303052
-1.769771 -1.233737 0.983430 -0.141048 -1.753433 -0.318702
-1.624586 -0.878297 0.469693 -0.121822 -1.684117 -0.323786
-1.591910 -0.651097 -0.186320 -0.075960 -1.566593 -0.308367
-2.646290 -0.749832 -1.121294 -0.022474 -1.736696 -0.341731
-2.700696 -0.705874 -1.735156 0.030085 -1.671954 -0.328587
-1.436630 0.065606 -2.329940 -0.041943 -1.470208 -0.316556
-2.941283 -0.312679 -2.542648 0.053568 -1.670005 -0.328063
-2.138675 -0.533337 -1.665788 0.098184 -1.476250 -0.299917
-2.139444 0.596312 -2.429925 -0.050731 -1.529587 -0.323441
-2.938952 0.615577 -3.889677 -0.083512 -1.692564 -0.348811
-1.831693 -0.097387 -2.574121 0.033699 -1.376775 -0.291424
-2.735536 0.070844 -2.139418 0.017005 -1.545588 -0.318893
-2.058962 -0.315664 -1.923367 0.079684 -1.412539 -0.294342
-1.615807 -0.297203 -3.690615 0.032756 -1.349174 -0.285332
-2.209798 0.869775 -3.715143 -0.112954 -1.483669 -0.314737
-2.829054 0.813075 -2.875626 -0.067592 -1.492058 -0.290598
-1.783318 -0.844804 -3.077056 0.161464 -1.269734 -0.248582
-1.855061 -0.621896 -1.640551 0.161945 -1.183458 -0.224184
-2.240954 0.557299 -2.601182 0.001732 -1.317531 -0.256962
-2.440730 0.151641 -4.542022 0.025402 -1.298006 -0.234303
-2.248626 1.485732 -3.290331 -0.075735 -1.138201 -0.187351
-1.192380 0.055469 -1.749092 0.141966 -0.943984 -0.153306
-2.153294 -0.242026 -3.368955 0.105391 -1.155445 -0.195988
-2.712658 0.768850 -2.701009 -0.006528 -1.139884 -0.168863
-1.494981 0.750102 -4.176637 -0.009888 -0.936445 -0.141273
-1.692422 0.998687 -1.595517 0.042390 -0.862643 -0.111029
-1.902042 -0.217582 -4.464159 0.107013 -1.020124 -0.165579
-3.944175 0.482996 -1.745278 0.111656 -1.202016 -0.162388
-1.572034 -0.464731 -3.002230 0.189230 -0.772124 -0.096788
-1.677402 0.943622 -2.389193 0.045351 -0.813961 -0.110846
-2.542243 0.790809 -3.716187 0.026108 -0.928135 -0.127479
-2.192133 0.816715 -2.242600 0.085661 -0.788240 -0.087396
-1.603785 -0.121303 -2.652567 0.175709 -0.746030 -0.094866
-2.053364 0.899796 -2.389218 0.077276 -0.792243 -0.101766
-2.195036 0.766530 -2.578051 0.050583 -0.767200 -0.095032
-1.845513 0.528200 -1.979546 0.119482 -0.726924 -0.101665
-2.532666 0.176388 -3.132406 0.102436 -0.887688 -0.136069
-2.881934 1.288367 -2.057875 0.019571 -0.879426 -0.125824
-0.837368 1.039239 -2.341392 0.043239 -0.572346 -0.104524
-1.616353 1.289392 -2.754945 0.002963 -0.726090 -0.139087
-2.091433 0.757816 -2.474535 0.105197 -0.787221 -0.144952
-2.220370 0.222120 -1.401826 0.174871 -0.737508 -0.143343
-1.158877 -0.010587 -2.831928 0.164318 -0.626157 -0.149123
-2.477963 0.810739 -2.122976 0.114540 -0.827593 -0.178653
-1.921383 0.997758 -3.433555 0.072036 -0.738251 -0.150858
-1.525604 -0.066826 -0.989851 0.238157 -0.631172 -0.129614
-1.747370 0.359776 -2.275435 0.135343 -0.688585 -0.157827
-2.100787 0.907202 -2.860505 0.066993 -0.726434 -0.166889
-1.617429 0.363316 -1.913596 0.206242 -0.605102 -0.146795
-1.440376 -0.573539 -1.792004 0.344667 -0.631299 -0.168273
-2.607271 1.408875 -3.113011 0.065603 -0.785283 -0.184672
-1.821063 1.317240 -2.540926 0.072052 -0.611824 -0.147824
-1.792360 3.437522 -3.346742 -0.238628 -0.629562 -0.160120
-2.209664 0.913776 -1.699943 0.132571 -0.645271 -0.136027
-1.662685 -2.117781 -0.897194 0.529390 -0.592787 -0.125338
-2.412780 -0.836659 -1.551848 0.399955 -0.695252 -0.127120
-1.063493 3.045043 -3.430053 -0.153042 -0.553234 -0.131116
-1.173565 1.994377 -3.007229 0.032243 -0.524563 -0.114764
-1.669909 -0.828761 -1.783526 0.414586 -0.607929 -0.122117
-2.172969 -1.558011 -0.877749 0.533176 -0.630303 -0.108457
-1.816704 1.550568 -3.306161 0.069361 -0.612000 -0.122400
-1.584620 1.880043 -3.366001 0.033995 -0.597616 -0.124858
-1.681453 0.525152 -1.997350 0.236405 -0.595938 -0.121104
-0.861323 0.564689 -1.815368 0.227976 -0.480230 -0.139106
-1.466439 1.840207 -2.595309 0.056419 -0.578463 -0.163086
-2.240459 0.985372 -2.165358 0.186096 -0.661224 -0.159438
-1.971485 1.045367 -2.467110 0.185280 -0.639543 -0.160368
-1.346660 1.585237 -2.271863 0.120278 -0.545304 -0.136984
-1.540067 1.885292 -2.209688 0.084534 -0.550043 -0.117590
-1.524626 1.890980 -2.230008 0.071299 -0.582356 -0.119093
-1.735505 2.588992 -2.330198 -0.038087 -0.605583 -0.132644
-1.481500 1.608049 -1.822040 0.068901 -0.564020 -0.141229
-1.425817 2.066880 -1.814748 -0.014608 -0.560721 -0.142205
-1.634455 1.850768 -2.005939 0.008295 -0.589227 -0.125853
-1.736261 1.755857 -1.911003 0.016312 -0.606039 -0.115233
-1.904312 1.051919 -1.544754 0.106442 -0.620501 -0.103301
-1.373537 1.336243 -1.843149 0.047594 -0.568232 -0.094648
-1.701885 1.813467 -1.938723 -0.026336 -0.604899 -0.098083
-1.330302 1.489781 -1.832416 0.002800 -0.548456 -0.112036
-1.729817 0.887377 -1.845816 0.062226 -0.595002 -0.125684
-1.999431 0.469646 -1.649706 0.101424 -0.609691 -0.115426
-1.770112 0.400381 -1.774095 0.086156 -0.581477 -0.104597
-1.540569 0.226508 -1.706588 0.091224 -0.574542 -0.095919
-1.778942 -1.246690 -0.877985 0.278219 -0.600137 -0.075016
-1.903019 -0.106348 -1.561924 0.086555 -0.674969 -0.092965
-1.355976 -0.379838 -0.952398 0.097141 -0.607181 -0.088060
-1.926548 -0.449355 -1.416100 0.073686 -0.703019 -0.115836
-1.666073 -0.009088 -1.186557 -0.018670 -0.676421 -0.116264
-1.744318 0.119341 -1.694849 -0.073603 -0.720492 -0.127152
-1.682672 -0.350441 -0.730133 -0.002917 -0.734042 -0.121438
-2.270428 -1.112466 -0.751836 0.104452 -0.858429 -0.115948
-1.593809 -0.554808 -1.237875 0.000932 -0.852095 -0.116327
-1.579867 -0.212005 -0.674688 -0.040947 -0.872745 -0.099131
-1.916515 -0.457366 -0.839688 -0.037761 -0.975924 -0.111719
-2.001644 -0.299568 -0.754547 -0.095894 -1.026157 -0.122046
-2.028990 0.070990 -1.029972 -0.168861 -1.040036 -0.119288
-1.694261 0.403610 -0.517863 -0.217845 -1.009693 -0.118395
-2.221525 0.315001 -0.947644 -0.207952 -1.112572 -0.137427
-1.932006 -0.633158 -0.201978 -0.067183 -1.074556 -0.150372
-1.840055 -0.659092 -0.243623 -0.018326 -1.084168 -0.190216
-2.427252 -0.110892 -0.418073 -0.095558 -1.176437 -0.233152
-2.395882 -0.435239 -0.647215 -0.066884 -1.185193 -0.252643
-1.933131 -0.501782 -0.620196 -0.080954 -1.122332 -0.257038
-2.292798 -0.231811 -0.713399 -0.132755 -1.185924 -0.275823
-2.014560 0.325482 -0.795025 -0.220420 -1.166726 -0.291714
-2.523135 0.802732 -0.904639 -0.296593 -1.237416 -0.325827
-2.531023 0.199607 -0.703451 -0.185881 -1.237566 -0.352641
-2.778084 -1.045604 -0.246977 -0.010529 -1.260507 -0.377669
-2.291520 -0.797433 -0.125205 -0.018021 -1.219137 -0.390602
-2.581695 -0.427929 -0.077295 -0.098873 -1.275228 -0.416701
-2.727829 -0.960847 0.130662 -0.025915 -1.297669 -0.418104
-2.302559 -0.886955 -0.496415 -0.097824 -1.237759 -0.418977
-2.439999 -0.530791 0.011032 -0.133139 -1.265864 -0.435946
-3.031647 0.313666 -1.169556 -0.287632 -1.388792 -0.463890
-2.473258 -0.258890 -0.334454 -0.166205 -1.281654 -0.448309
-2.737866 -1.236715 0.405447 -0.041213 -1.308341 -0.458610
-2.628053 -1.060532 -0.590838 -0.049102 -1.368162 -0.480765
-3.015338 -1.050584 0.572233 -0.054558 -1.371334 -0.474942
-2.495724 -0.596738 0.043527 -0.110590 -1.324405 -0.470819
-2.511233 -0.695092 -0.030068 -0.111869 -1.342344 -0.467439
-2.639532 -0.088780 -0.859786 -0.220108 -1.396198 -0.473283
-2.659854 1.120812 -0.623784 -0.432344 -1.358594 -0.465914
-2.238808 -0.787692 -0.604913 -0.198441 -1.311095 -0.469806
-2.871521 -0.550915 1.028606 -0.197698 -1.382702 -0.470617
-2.825547 -0.607117 0.110371 -0.193789 -1.405421 -0.484561
-2.484887 -0.063210 -0.776982 -0.315777 -1.374409 -0.494274
-2.380772 0.397448 -1.666535 -0.373147 -1.437488 -0.527013
-2.541627 -0.282253 -1.221716 -0.219161 -1.435182 -0.507846
-2.521250 -0.194524 1.428193 -0.193923 -1.356479 -0.481821
-2.116242 -1.350041 -1.086195 -0.111054 -1.381127 -0.493890
-2.665981 0.040286 1.656716 -0.296576 -1.380482 -0.470150
-2.177878 0.346391 -2.223656 -0.431437 -1.416025 -0.484451
-2.595508 1.047572 0.239225 -0.483058 -1.418745 -0.469191
-1.797268 -0.446764 -0.941838 -0.308066 -1.364199 -0.468643
-2.615849 -1.334588 1.498798 -0.148946 -1.443786 -0.481077
-2.111586 0.031537 -0.629081 -0.331303 -1.471611 -0.499296
-2.964066 0.688778 -1.450371 -0.462626 -1.584488 -0.509968
-2.027118 0.449793 0.099952 -0.403712 -1.451989 -0.476176
-2.546265 -1.305689 0.988671 -0.204434 -1.492302 -0.461800
-2.273195 0.241886 0.529209 -0.466079 -1.513324 -0.470058
-2.618444 0.676688 -1.972829 -0.534418 -1.611249 -0.490358
-2.076863 0.739444 0.615073 -0.554946 -1.488611 -0.461402
-2.536610 -1.979088 1.359297 -0.171674 -1.564606 -0.462164
-2.715531 0.906739 0.387762 -0.532456 -1.701260 -0.495212
-2.427374 0.952537 -1.736485 -0.609731 -1.651963 -0.493524
-2.184579 -0.498351 2.839752 -0.318820 -1.544260 -0.445451
-3.063109 -0.541782 -0.562386 -0.458983 -1.882213 -0.529819
-2.440060 1.400494 -0.006675 -0.703560 -1.658921 -0.475480
-2.644093 0.541035 0.864377 -0.579169 -1.727815 -0.486767
-2.646314 -0.570459 -0.451187 -0.548149 -1.935694 -0.537949
-3.418392 0.428638 1.742015 -0.606560 -1.908035 -0.492285
-1.636101 0.876041 9.175932 -0.736331 -1.856631 -0.482045
-1.142001 0.441447 21.156683 -0.753623 -2.181355 -0.507602
-0.723439 -0.024000 38.360408 -0.822753 -2.266337 -0.458942
0.635262 -1.573958 53.518556 -0.912733 -2.088321 -0.385374
0.029975 -2.426356 64.771908 -1.246738 -2.358574 -0.417249
-0.391771 -4.278319 70.684238 -1.282961 -2.375713 -0.386458
-0.077856 -7.142165 72.205514 -1.184712 -2.219485 -0.355869
-0.964332 -8.263310 64.732235 -1.301230 -2.042659 -0.320825
-1.819022 -8.740245 53.723037 -1.477452 -1.754360 -0.273311
-1.978971 -11.089533 42.750864 -1.440425 -1.381535 -0.253696
-3.865877 -10.793306 32.446566 -1.743735 -1.143988 -0.241257
-3.310158 -10.350470 23.310620 -1.639848 -0.723848 -0.209733
-3.405869 -8.596248 16.822703 -1.332495 -0.688332 -0.191234
-2.881855 -6.569744 12.075917 -1.070900 -0.696300 -0.199332
-2.122655 -5.742892 10.619714 -0.695885 -0.616968 -0.189447
-2.885511 -4.144253 7.900751 -0.605291 -0.901684 -0.245053
-2.770015 -3.812861 6.260325 -0.512638 -0.975722 -0.261401
-2.617545 -4.004623 8.551416 -0.273826 -1.040531 -0.239217
-2.491393 -3.539360 10.748327 -0.298736 -1.270845 -0.246183
-0.867122 -1.228154 13.438908 -0.652201 -1.412097 -0.224203
0.238241 -2.292598 19.909652 -0.892545 -1.795515 -0.262783
0.689016 -5.520337 29.554500 -1.037959 -1.919528 -0.250159
2.057578 -7.760055 38.925670 -1.354975 -1.713844 -0.238550
0.646105 -7.514321 46.673674 -1.628446 -1.808156 -0.270727
0.293067 -6.229581 53.473220 -1.738976 -1.651007 -0.250836
0.319520 -6.555763 58.183437 -1.821431 -1.448316 -0.222582
-0.647770 -7.767203 60.519896 -1.951095 -1.631639 -0.255850
-0.133005 -10.390948 60.972875 -1.807724 -1.518533 -0.215056
-0.199486 -10.598178 56.662736 -1.807477 -1.561822 -0.225592
-1.022094 -9.717074 51.066793 -1.893319 -1.551125 -0.232077
-1.432237 -10.780948 46.463009 -1.713931 -1.284095 -0.202837
-2.374695 -11.126463 42.190788 -1.676937 -1.100716 -0.209061
-3.671365 -10.257044 38.342084 -1.743514 -1.042489 -0.218934
-3.582715 -9.866990 35.627059 -1.656757 -0.807343 -0.200237
-3.923703 -8.288663 34.121405 -1.710944 -0.860681 -0.218855
-3.155852 -7.312089 34.301454 -1.713932 -0.820974 -0.198029
-2.550502 -7.233427 36.086882 -1.757051 -0.908395 -0.213636
-2.765196 -7.254453 38.671358 -1.796351 -1.013172 -0.223995
-2.199053 -6.662220 41.886495 -1.737382 -0.992129 -0.227911
-2.860993 -5.602764 43.944326 -1.668740 -1.171155 -0.242889
-1.683914 -4.184880 45.921420 -1.654497 -1.150153 -0.234639
-1.248890 -3.998732 47.619678 -1.548770 -1.252664 -0.225181
-0.932205 -3.774327 47.434324 -1.474988 -1.411135 -0.222984
-0.647987 -2.428072 46.558475 -1.468145 -1.490876 -0.222894
0.136761 -0.735143 44.050664 -1.406277 -1.466060 -0.214635
0.589902 -0.434919 43.591708 -1.200885 -1.325806 -0.169980
-0.057193 -0.319896 41.765939 -1.078167 -1.493179 -0.195479
0.106993 0.799305 39.584683 -1.124711 -1.595906 -0.225698
0.305645 1.158705 38.876566 -0.946968 -1.554981 -0.196508
0.260264 1.447511 38.567488 -0.814304 -1.693563 -0.222324
0.950353 2.272256 38.767117 -0.806551 -1.677465 -0.222313
0.788494 2.462869 38.581685 -0.788736 -1.760154 -0.238552
1.342822 2.503503 39.143562 -0.744652 -1.722860 -0.243716
1.081813 2.742417 39.880037 -0.680541 -1.786364 -0.249793
1.474950 2.773669 40.228687 -0.611134 -1.733010 -0.239977
1.363326 3.332346 40.295743 -0.613993 -1.788615 -0.245592
1.698106 3.247002 40.100346 -0.579177 -1.732047 -0.227713
1.790448 2.797852 40.293732 -0.502674 -1.754811 -0.221488
1.796379 2.203566 40.620502 -0.430436 -1.767599 -0.213617
1.176853 1.795507 40.420622 -0.409311 -1.878087 -0.227374
1.825301 1.522307 40.325945 -0.372159 -1.732544 -0.211812
1.170026 1.427016 40.592573 -0.286838 -1.792095 -0.211733
1.061238 1.778890 40.723151 -0.272563 -1.865489 -0.222267
1.536843 1.948081 40.509111 -0.332086 -1.815653 -0.210754
1.457776 0.926542 41.602419 -0.280213 -1.848570 -0.213066
1.233836 0.170625 42.683074 -0.232276 -1.855254 -0.209653
1.198419 0.183356 43.154107 -0.225179 -1.792250 -0.204336
1.157762 0.157104 43.243619 -0.247901 -1.768517 -0.219735
0.789462 -0.220589 43.906944 -0.261497 -1.773724 -0.222349
0.335137 -1.534492 45.201724 -0.181363 -1.820164 -0.233185
0.247064 -2.047859 46.162130 -0.186428 -1.801150 -0.230023
0.056018 -1.510177 45.868329 -0.319841 -1.861247 -0.245173
0.455409 -1.631699 46.581474 -0.353831 -1.797909 -0.242725
-0.148030 -2.811843 48.251415 -0.264090 -1.796232 -0.239734
-0.330055 -3.012517 48.759682 -0.317573 -1.765002 -0.252730
-0.954129 -3.004700 48.854719 -0.375683 -1.795819 -0.261587
-0.903512 -3.129157 49.446955 -0.385413 -1.776050 -0.259062
-0.718121 -3.706847 50.630868 -0.342570 -1.727386 -0.238232
-0.805751 -3.891650 51.047630 -0.398536 -1.740410 -0.243633
-1.107191 -3.768860 51.262946 -0.449129 -1.689740 -0.237437
-1.365038 -3.737388 51.658423 -0.446872 -1.640286 -0.235569
-1.247459 -3.726860 52.060137 -0.456010 -1.558348 -0.225939
-1.138374 -3.663436 51.980199 -0.505139 -1.522328 -0.218630
-1.121800 -3.869893 52.173406 -0.502426 -1.512008 -0.208949
-1.091485 -4.004437 52.411231 -0.486723 -1.498351 -0.195624
-1.196159 -3.879512 52.249209 -0.488652 -1.487655 -0.193053
-0.930943 -3.414309 51.878182 -0.518892 -1.368777 -0.185652
-1.163303 -3.147092 51.589072 -0.519607 -1.331909 -0.190247
-1.279736 -2.892148 51.408340 -0.517045 -1.307658 -0.191557
-1.495443 -2.516674 50.849548 -0.539313 -1.351317 -0.189203
-0.989458 -2.206243 50.502311 -0.554987 -1.309002 -0.173681
-0.864906 -2.091294 50.101228 -0.543522 -1.337715 -0.166007
-0.661117 -1.836732 49.677676 -0.534503 -1.304907 -0.155513
-1.009186 -1.649950 49.043569 -0.519014 -1.334216 -0.154705
-1.061130 -1.409196 48.366016 -0.531004 -1.324693 -0.149235
-0.845885 -1.265615 47.713208 -0.542123 -1.317973 -0.141961
-0.779682 -1.232839 47.372762 -0.546259 -1.359097 -0.144464
-0.514099 -1.183771 47.143886 -0.542999 -1.354941 -0.139941
-0.272121 -1.060626 46.750997 -0.554657 -1.352169 -0.136681
-0.269596 -0.819284 46.319618 -0.573890 -1.408517 -0.146040
-0.509892 -0.849593 46.247649 -0.556393 -1.427514 -0.140787
-0.337290 -0.688669 46.284365 -0.561391 -1.397402 -0.133544
-0.148238 -0.480455 45.909658 -0.568616 -1.353453 -0.114492
0.193572 -0.325907 45.871024 -0.572105 -1.354394 -0.111020
-0.055891 -0.307708 45.746139 -0.571137 -1.447607 -0.118426
0.267568 -0.344375 45.544362 -0.567836 -1.433396 -0.119099
0.233769 -0.339510 45.382004 -0.569247 -1.466674 -0.124050
0.320214 -0.385504 45.215217 -0.561007 -1.474551 -0.124566
0.502328 -0.414106 45.036809 -0.549478 -1.438124 -0.116173
0.306784 -0.423769 44.987023 -0.542896 -1.467360 -0.119647
0.166796 -0.486431 44.904320 -0.530660 -1.481270 -0.118710
0.072232 -0.536609 44.892707 -0.527789 -1.517695 -0.126201
0.112141 -0.603320 44.881178 -0.525507 -1.534189 -0.132390
0.202548 -0.647465 44.883897 -0.527107 -1.534545 -0.137764
0.151847 -0.703104 44.833199 -0.528179 -1.551205 -0.146291
-0.013758 -0.765889 44.838567 -0.523933 -1.582362 -0.154714
-0.073601 -0.797859 44.855352 -0.520572 -1.586086 -0.157798
-0.057256 -0.818580 44.778440 -0.515875 -1.591539 -0.162110
-0.140377 -0.806541 44.741766 -0.513297 -1.622121 -0.169817
-0.109420 -0.843908 44.689024 -0.507467 -1.625597 -0.172923
-0.211707 -0.933842 44.575189 -0.497904 -1.654535 -0.180747
-0.281288 -0.961340 44.467691 -0.493619 -1.677780 -0.187494
-0.246932 -0.997018 44.301241 -0.485830 -1.679089 -0.190774
-0.187942 -1.067791 44.122366 -0.471429 -1.667946 -0.191198
-0.213040 -1.132804 44.016962 -0.460570 -1.669613 -0.194815
-0.281334 -1.219677 43.936984 -0.450212 -1.683485 -0.200862
-0.385647 -1.296935 43.868309 -0.441270 -1.702502 -0.208272
-0.498048 -1.306165 43.880905 -0.441204 -1.717755 -0.214808
-0.536752 -1.320788 43.906857 -0.442086 -1.728064 -0.219999
-0.544895 -1.333632 44.022847 -0.444319 -1.737488 -0.222890
-0.583180 -1.321529 44.069653 -0.454221 -1.774289 -0.230387
-0.527872 -1.344183 44.243504 -0.454296 -1.789618 -0.231557
-0.483030 -1.458842 44.500588 -0.435261 -1.800955 -0.232334
-0.477195 -1.474892 44.699811 -0.427935 -1.811543 -0.232299
-0.455400 -1.453120 44.909686 -0.420350 -1.803617 -0.228495
-0.418705 -1.420994 45.195663 -0.413336 -1.790639 -0.223458
-0.437632 -1.524269 45.621594 -0.407000 -1.793008 -0.221437
-0.437784 -1.629441 46.027279 -0.429385 -1.792602 -0.221409
-0.395247 -1.767131 46.467340 -0.440326 -1.783129 -0.219687
-0.411785 -1.888917 47.046715 -0.447822 -1.799554 -0.223644
-0.373360 -1.910470 47.554563 -0.454814 -1.800983 -0.223899
-0.342470 -1.958480 47.982317 -0.461914 -1.800324 -0.225309
-0.437902 -1.996673 48.361162 -0.468820 -1.812138 -0.229106
-0.478900 -2.077639 48.830218 -0.463492 -1.794949 -0.227042
-0.489550 -2.125419 49.055538 -0.461244 -1.782118 -0.227588
-0.511977 -2.058938 49.187363 -0.475632 -1.775489 -0.229815
-0.486832 -2.060802 49.311375 -0.477648 -1.757417 -0.229290
-0.517232 -2.105900 49.415737 -0.473346 -1.746086 -0.228790
-0.542655 -2.100936 49.407677 -0.482648 -1.743200 -0.231969
-0.536908 -2.133840 49.408519 -0.483261 -1.731792 -0.232147
-0.527498 -2.160310 49.413208 -0.477359 -1.720281 -0.231895
-0.602641 -2.125734 49.443178 -0.473855 -1.716539 -0.232180
-0.692745 -2.051190 49.441098 -0.468333 -1.702811 -0.232051
-0.749676 -1.887610 49.340985 -0.477072 -1.689913 -0.233820
-0.738358 -1.717869 49.264092 -0.489208 -1.669012 -0.233558
-0.789264 -1.677260 49.114396 -0.494143 -1.660355 -0.233828
-0.800647 -1.569201 48.890530 -0.514733 -1.639544 -0.230280
-0.785237 -1.533128 48.634178 -0.527634 -1.615888 -0.227365
-0.800963 -1.578085 48.487258 -0.519703 -1.589544 -0.221878
-0.768551 -1.565964 48.336333 -0.507484 -1.574411 -0.220209
-0.704029 -1.348385 47.903529 -0.515349 -1.564913 -0.220416
-0.588907 -1.251325 47.531153 -0.506193 -1.543851 -0.217397
-0.557085 -1.220076 47.295595 -0.499943 -1.541234 -0.218122
-0.461841 -1.163729 46.850012 -0.499893 -1.520953 -0.214725
-0.338373 -1.075324 46.395892 -0.504187 -1.496979 -0.210973
-0.316147 -1.018233 45.950690 -0.492278 -1.484028 -0.206452
-0.302726 -0.905968 45.302859 -0.487775 -1.469716 -0.201838
-0.234456 -0.822110 44.647469 -0.486186 -1.444969 -0.194965
-0.239856 -0.776473 43.879873 -0.484787 -1.439033 -0.191970
-0.207211 -0.680659 42.912873 -0.470737 -1.415133 -0.189720
-0.240160 -0.582490 42.045401 -0.449460 -1.390211 -0.193321
-0.337175 -0.429918 40.937695 -0.439001 -1.368580 -0.198666
-0.393722 -0.444652 39.957045 -0.408017 -1.324317 -0.200317
-0.500628 -0.495919 38.748063 -0.384938 -1.306214 -0.207252
-0.539180 -0.275713 37.063208 -0.386617 -1.313156 -0.220064
-0.503377 -0.024205 35.486085 -0.360262 -1.289496 -0.217891
-0.489136 -0.017852 33.735649 -0.323589 -1.262669 -0.214551
-0.623834 -0.134142 32.017531 -0.286584 -1.220531 -0.207894
-0.482029 -0.192526 30.217468 -0.255497 -1.199355 -0.213783
-0.397867 0.085333 28.519447 -0.270386 -1.208732 -0.216425
-0.292543 0.325194 27.090670 -0.280671 -1.225645 -0.216981
-0.094386 0.204512 26.119065 -0.241872 -1.219431 -0.211267
0.080387 -0.390398 25.767418 -0.127499 -1.182880 -0.193339
-0.032956 -0.505667 24.564809 -0.104221 -1.241959 -0.202145
-0.177462 0.144362 22.662350 -0.183185 -1.311135 -0.212929
0.176093 0.961133 20.019398 -0.257733 -1.273867 -0.200048
0.313770 -0.257195 19.517669 -0.053601 -1.260156 -0.184556
-0.039367 0.141520 16.689369 -0.122177 -1.407500 -0.208022
0.422770 0.301948 14.482061 -0.136215 -1.350636 -0.193977
0.292987 0.341805 12.015362 -0.156173 -1.416365 -0.202371
0.228426 -0.269184 10.298562 -0.073786 -1.472287 -0.213106
0.590733 -0.263087 8.619055 -0.070539 -1.386451 -0.198799
0.312770 -0.036390 5.431794 -0.154125 -1.514272 -0.237740
0.195627 0.009880 3.557363 -0.181739 -1.535391 -0.248594
-0.498862 -0.749113 2.744426 -0.047823 -1.556868 -0.243476
-0.507236 -0.614448 1.126899 -0.046036 -1.483766 -0.247540
-1.241530 0.239689 -0.756444 -0.121808 -1.490573 -0.271001
-1.614599 0.693382 -2.390367 -0.142226 -1.479147 -0.287892
-1.139942 0.246197 -1.911907 -0.033536 -1.358458 -0.281573
-2.340910 0.398088 -1.788000 0.006157 -1.459962 -0.286352
-1.921441 0.349367 -2.393029 0.012088 -1.424160 -0.294417
-2.439747 0.005650 -2.559408 0.079309 -1.442192 -0.291227
-1.869187 -0.186116 -2.097809 0.115256 -1.336571 -0.278518
-2.301723 -0.368202 -1.755045 0.124185 -1.378083 -0.277556
-2.200637 -0.687885 -1.772536 0.156216 -1.337962 -0.267843
-2.307401 -0.288662 -2.889683 0.085121 -1.403552 -0.278497
-2.064261 0.196781 -3.102576 0.011234 -1.361015 -0.273319
-2.295266 0.626679 -2.789052 -0.012637 -1.391806 -0.272437
-2.480574 0.395908 -2.435191 0.030032 -1.423870 -0.284063
-2.276301 -0.034387 -2.102748 0.114696 -1.383697 -0.281232
-2.763172 -0.067262 -1.828431 0.155457 -1.454815 -0.293165
-2.046885 -0.177737 -1.427496 0.202604 -1.291837 -0.271882
-2.612888 -0.064098 -2.004306 0.158614 -1.425786 -0.299109
-1.970861 -0.317247 -1.657913 0.169668 -1.234303 -0.264552
-1.602614 -0.421509 -0.696762 0.125826 -1.128412 -0.252258
-2.578365 0.008062 -1.150310 -0.075570 -1.319450 -0.277226
-1.927760 0.555455 -1.658690 -0.230663 -1.167733 -0.243866
-2.996106 0.523011 -1.266024 -0.310371 -1.386971 -0.281150
-2.304849 -0.206202 -0.024292 -0.199635 -1.296142 -0.264685
-2.613390 0.015506 0.474363 -0.262637 -1.427024 -0.294895
-3.104367 0.515859 0.023793 -0.330542 -1.594145 -0.342380
-2.624153 -0.021929 2.299932 -0.242751 -1.497430 -0.371682
-2.554192 1.570847 10.280549 -0.241849 -1.504998 -0.386866
-3.258473 2.667364 19.839896 -0.187261 -1.814463 -0.421416
-2.071121 3.384255 32.129532 -0.387801 -1.881558 -0.442911
-1.821547 1.369461 47.699654 -0.389318 -1.948418 -0.435869
-1.536015 -0.407679 63.418346 -0.261568 -2.138789 -0.460302
-1.429547 0.322399 72.907863 -0.311598 -2.277695 -0.455916
-1.241679 0.390912 76.808467 -0.370843 -2.269525 -0.461672
-3.165167 -1.985411 77.420562 -0.232671 -2.255853 -0.441167
-3.807618 -4.295486 69.991718 -0.087678 -1.960232 -0.404132
-4.375709 -3.113561 60.186814 -0.273214 -1.554000 -0.368812
-6.320297 -3.584508 46.779942 -0.295400 -1.145142 -0.347510
-6.701818 -3.110849 39.740013 -0.411463 -0.823606 -0.324716
-7.286802 -4.871934 32.596036 -0.457797 -0.489039 -0.320740
-8.112552 -5.869295 27.141367 -0.597938 -0.302069 -0.313388
-8.007768 -6.075238 23.591995 -0.713983 -0.067665 -0.289839
-8.171523 -6.317647 21.790396 -0.750409 0.087317 -0.250490
-9.070931 -5.822342 21.768076 -0.939707 0.022009 -0.240437
-8.774581 -5.748311 23.981266 -1.151583 -0.000737 -0.227669
-8.517555 -7.101861 27.484755 -1.239523 -0.211271 -0.223181
-7.550273 -7.640823 33.984146 -1.535903 -0.543858 -0.227948
-5.508721 -8.212115 39.729160 -1.757448 -0.624469 -0.189733
-5.026107 -8.625043 45.502735 -1.924786 -0.939995 -0.183255
-2.889955 -8.682441 51.661707 -1.982682 -0.744711 -0.115306
-3.055255 -8.034052 54.543418 -2.138170 -0.832775 -0.106739
-2.939290 -8.260357 56.276138 -2.136630 -0.865341 -0.102817
-3.038745 -9.272367 57.744646 -2.000213 -0.828923 -0.070785
-3.028866 -9.066087 56.975474 -2.063464 -0.843325 -0.066186
-3.040853 -9.373228 55.770337 -2.004744 -0.866886 -0.067045
-3.166022 -9.325684 54.187335 -1.896275 -0.902556 -0.066930
-3.056286 -8.493754 51.059159 -1.778957 -0.914230 -0.072071
-2.862176 -7.211115 45.713321 -1.716326 -0.911591 -0.101267
-2.755003 -7.105998 44.752175 -1.675244 -0.869328 -0.103186
-3.043707 -6.378094 42.989001 -1.592521 -0.838593 -0.132043
-3.412134 -4.934810 41.427718 -1.630775 -0.864433 -0.181404
-2.840174 -4.409920 40.981866 -1.601330 -0.738009 -0.193303
-3.472035 -3.995298 41.951280 -1.603190 -0.859693 -0.219430
-3.517389 -3.616745 43.187571 -1.600693 -0.951647 -0.242014
-2.506574 -2.888533 44.933053 -1.517718 -0.817457 -0.215059
-3.544747 -2.141898 46.593323 -1.487156 -1.094520 -0.259240
-2.675396 -1.980835 47.121863 -1.419985 -0.999299 -0.249732
-3.566315 -1.629744 47.498937 -1.363790 -1.154960 -0.263497
-2.954165 -1.169349 47.082407 -1.284404 -1.131169 -0.264404
-3.150951 -0.761174 46.081092 -1.203194 -1.135307 -0.231546
-2.809448 -0.267815 44.741899 -1.165393 -1.114105 -0.226293
-2.533418 -0.112239 43.410665 -1.116688 -1.052030 -0.211548
-2.255768 -0.251876 42.483160 -1.036580 -0.987746 -0.206175
-2.588414 -0.151451 41.773789 -0.982516 -1.068141 -0.224891
-2.431493 0.273610 41.129698 -0.936374 -1.058880 -0.224877
-2.167759 0.439863 41.331049 -0.865927 -1.073433 -0.221561
-2.240086 0.783286 41.148826 -0.864125 -1.181682 -0.222893
-1.676246 0.634705 41.430093 -0.813649 -1.177192 -0.205813
-1.430066 0.178574 41.881540 -0.750986 -1.201085 -0.201331
-1.622557 -0.107987 41.759966 -0.736711 -1.236492 -0.202034
-1.650818 -0.253565 42.052371 -0.738585 -1.203957 -0.201148
-1.662098 -0.872213 42.556646 -0.688440 -1.144660 -0.191557
-1.788371 -0.978593 42.821326 -0.689020 -1.155029 -0.192710
-1.480037 -1.003668 43.086026 -0.683500 -1.097194 -0.181430
-1.511261 -1.107339 43.241136 -0.642411 -1.108875 -0.176537
-1.782941 -1.500190 43.582608 -0.584018 -1.174451 -0.186245
-1.851311 -1.889008 43.300817 -0.581772 -1.174340 -0.191560
-2.116831 -2.164978 42.628671 -0.596399 -1.234859 -0.212897
-2.370145 -2.403663 42.166795 -0.557873 -1.280090 -0.223365
-2.390237 -2.532985 41.601214 -0.525693 -1.266682 -0.224487
-2.733266 -2.601515 40.824906 -0.544265 -1.299377 -0.234761
-2.945553 -2.816858 40.423421 -0.543574 -1.289997 -0.236912
-3.013895 -3.044800 40.157560 -0.526258 -1.242378 -0.234906
