fx fy fz tx ty tz 
-1.798520 0.462913 0.909416 -0.092196 -0.655751 -0.137338
-1.806790 0.452235 0.959668 -0.087511 -0.657473 -0.137517
-1.809377 0.275885 0.766375 -0.049333 -0.659998 -0.137723
-1.801172 0.505885 0.617202 -0.060639 -0.659505 -0.138323
-1.869720 0.489522 0.363520 -0.043269 -0.671584 -0.140231
-1.839692 0.389130 0.487813 -0.012298 -0.670965 -0.144474
-1.826544 0.419069 0.339134 -0.000478 -0.675562 -0.150088
-1.879622 0.469607 0.249407 0.024340 -0.687235 -0.156861
-1.857431 0.285446 0.154824 0.106533 -0.691080 -0.163940
-1.894303 0.200083 0.078928 0.135099 -0.698787 -0.165870
-1.942342 0.253766 -0.205526 0.145239 -0.711374 -0.169718
-1.890419 0.211750 -0.226226 0.161908 -0.707450 -0.171203
-1.871437 0.129193 -0.198929 0.180745 -0.709037 -0.173498
-1.904598 0.149109 -0.128895 0.187562 -0.715339 -0.174726
-1.913548 0.282686 -0.233942 0.184913 -0.718446 -0.173279
-1.903016 0.301513 -0.192301 0.195336 -0.725492 -0.172806
-1.873058 0.363166 -0.298788 0.187032 -0.729815 -0.169393
-1.831531 0.431164 -0.242465 0.179933 -0.736142 -0.166779
-1.847941 0.388155 -0.297974 0.182486 -0.749475 -0.162421
-1.840624 0.423271 -0.224057 0.169198 -0.756550 -0.155543
-1.840928 0.324023 0.029629 0.157639 -0.769642 -0.148495
-1.825585 0.311415 0.126456 0.128133 -0.775796 -0.138878
-1.819221 0.282531 0.093498 0.104460 -0.786702 -0.133407
-1.844229 0.412952 0.136508 0.065712 -0.791444 -0.127899
-1.850005 0.460353 0.378542 0.043409 -0.789213 -0.123699
-1.882364 0.447903 0.512813 0.029787 -0.794770 -0.122539
-1.803991 0.594102 0.563840 -0.016691 -0.776546 -0.117085
-1.773451 0.715118 0.470654 -0.058797 -0.765356 -0.111693
-1.762258 0.705997 0.619497 -0.085217 -0.759354 -0.107101
-1.719235 0.570715 0.906222 -0.095674 -0.744667 -0.101780
-1.680640 0.394166 1.202902 -0.092888 -0.737651 -0.100907
-1.768706 0.345619 1.452341 -0.112649 -0.744551 -0.101834
-1.646449 0.435669 1.374873 -0.155904 -0.727730 -0.101357
-1.808189 0.339777 1.627228 -0.171156 -0.743091 -0.105521
-1.913622 0.254994 1.636317 -0.197393 -0.739042 -0.107816
-1.796665 0.657459 1.454298 -0.274871 -0.689815 -0.106513
-1.864477 0.572701 1.603852 -0.277163 -0.671624 -0.108847
-1.732951 0.359465 1.984788 -0.245894 -0.609987 -0.101920
-1.631876 0.407916 2.130978 -0.245855 -0.574317 -0.099440
-1.788031 0.415551 1.889820 -0.253289 -0.581368 -0.099610
-1.730797 0.181555 2.242355 -0.228406 -0.554590 -0.098671
-1.673827 0.293262 1.928525 -0.266987 -0.541304 -0.101382
-1.783070 0.623253 1.780837 -0.323199 -0.551712 -0.106013
-1.849017 0.282688 2.088974 -0.286125 -0.545279 -0.106594
-1.795785 0.283239 2.260436 -0.283188 -0.528519 -0.105588
-1.874502 0.330634 2.307904 -0.284377 -0.535569 -0.106380
-1.809665 0.503949 2.088411 -0.305581 -0.508609 -0.098599
-1.639848 0.628848 1.903025 -0.331189 -0.478834 -0.093033
-1.727024 0.257959 2.554258 -0.283335 -0.488984 -0.094652
-1.706818 0.491610 2.283907 -0.334136 -0.471425 -0.090457
-1.732501 0.443286 2.227214 -0.342179 -0.468354 -0.093151
-1.663388 0.689736 1.929824 -0.393063 -0.447304 -0.091715
-1.767711 0.407786 2.445371 -0.351535 -0.457767 -0.097220
-1.671528 0.275980 2.593398 -0.323719 -0.424204 -0.093406
-1.807421 0.301490 2.655756 -0.324998 -0.437554 -0.097028
-1.523330 0.787206 2.107151 -0.409533 -0.364404 -0.084851
-1.568173 0.344103 2.554231 -0.353213 -0.355371 -0.083575
-1.490448 0.013398 2.870395 -0.321628 -0.328672 -0.079302
-1.431296 0.975979 1.880111 -0.462872 -0.306379 -0.074036
-1.639636 0.108648 2.685575 -0.338598 -0.336781 -0.081691
-1.299248 0.182028 2.761498 -0.335409 -0.231100 -0.061110
-1.373124 0.484944 2.517747 -0.363003 -0.283173 -0.077311
-1.521176 0.270578 2.340157 -0.329512 -0.251886 -0.064330
-1.316440 0.025214 3.270084 -0.280170 -0.239750 -0.070445
-1.493039 0.730272 1.981016 -0.397292 -0.241649 -0.060991
-1.510729 0.224929 2.231611 -0.339950 -0.254851 -0.059754
-1.261789 0.076839 3.208984 -0.300579 -0.215481 -0.051628
-1.437560 0.208465 2.530187 -0.326664 -0.269263 -0.057426
-1.448507 0.130879 2.381246 -0.288675 -0.266583 -0.053077
-1.149382 -0.053764 2.926378 -0.249547 -0.198335 -0.039551
-1.210414 -0.230516 3.190845 -0.225987 -0.224108 -0.045108
-1.404815 -0.516195 2.910980 -0.207477 -0.230035 -0.036517
-1.190000 0.369101 2.504484 -0.342689 -0.183611 -0.023348
-1.034506 0.429117 2.495970 -0.360970 -0.143280 -0.011659
-1.206588 0.493927 2.101413 -0.367272 -0.152520 -0.003391
-1.091069 0.016416 2.956214 -0.308243 -0.111660 0.006626
-1.075439 0.141665 2.505802 -0.311943 -0.097756 0.008798
-1.140360 -0.405770 2.745074 -0.244322 -0.087930 0.011387
-0.873955 -0.084271 3.081011 -0.272790 -0.063581 0.010511
-1.263800 -0.215282 3.410276 -0.253122 -0.082536 0.018808
-0.825459 0.544994 5.716698 -0.329413 -0.048760 0.030167
-1.157394 1.685939 10.408659 -0.453276 -0.074933 0.030557
-1.714467 1.237494 19.196542 -0.385833 -0.128514 0.001732
-1.888066 0.178161 28.166396 -0.433350 0.073301 0.017800
-3.201941 -1.306267 36.700103 -0.476234 -0.027178 -0.029918
-2.992228 -1.361656 42.071921 -0.545741 0.098162 -0.027997
-2.282296 -2.577322 43.852374 -0.485467 0.225044 -0.008260
-1.721505 -3.801608 42.169277 -0.435307 0.109218 -0.022288
-0.701409 -4.405150 37.795782 -0.395823 0.056047 -0.020904
0.106601 -4.844720 31.616661 -0.377944 -0.096311 -0.041191
-0.425085 -4.948510 25.778082 -0.390838 -0.336644 -0.060047
0.262836 -5.948530 20.557276 -0.273176 -0.410130 -0.072928
-0.343913 -5.743666 16.910086 -0.260394 -0.563585 -0.082561
-0.273050 -5.713835 14.459563 -0.184446 -0.603589 -0.083531
0.035045 -5.461883 13.160895 -0.155016 -0.580776 -0.072083
0.758944 -5.126522 13.310898 -0.136397 -0.575596 -0.062195
1.302682 -4.418151 14.142477 -0.163149 -0.581873 -0.047144
1.964365 -3.118429 15.335273 -0.387991 -0.449234 -0.034781
0.310684 -3.959988 19.772816 -0.468650 -0.433130 -0.054709
-0.487758 -4.204472 23.069438 -0.702110 -0.238265 -0.055583
-1.626790 -3.728371 26.400042 -0.838635 -0.278044 -0.070947
-1.572127 -3.835789 30.024071 -0.773523 -0.274368 -0.069459
-1.545479 -3.314903 31.651244 -0.862476 -0.346507 -0.085027
-1.856496 -3.062894 32.001958 -0.947939 -0.414959 -0.097215
-1.317487 -3.864797 32.482019 -0.834287 -0.332946 -0.091672
-1.183928 -3.835492 31.774663 -0.816608 -0.352026 -0.097919
-1.340481 -2.785873 29.659993 -0.890018 -0.421432 -0.102764
-1.060631 -2.355834 27.957486 -0.809207 -0.479551 -0.114367
-1.180242 -1.989415 26.976430 -0.753921 -0.552750 -0.127967
-1.135648 -1.562466 25.659573 -0.735784 -0.589723 -0.135373
-0.982664 -1.219227 25.127963 -0.685242 -0.609719 -0.135848
-0.934967 -0.906236 24.945565 -0.669891 -0.630225 -0.135966
-1.031161 -0.894457 25.401718 -0.706522 -0.637478 -0.135130
-0.965092 -0.853698 26.138217 -0.732483 -0.627114 -0.131841
-0.772298 -0.642843 26.975563 -0.747621 -0.608757 -0.128342
-0.761163 -0.300357 27.587702 -0.759962 -0.613369 -0.130856
-0.916481 0.087263 28.277057 -0.780684 -0.620272 -0.136376
-1.141723 0.271468 28.761354 -0.804074 -0.620269 -0.141112
-1.329755 0.204601 29.422682 -0.797665 -0.625788 -0.148138
-1.403078 0.187416 29.950128 -0.781656 -0.634585 -0.149339
-1.195006 0.204074 30.111141 -0.744945 -0.639106 -0.152012
-1.218376 0.217218 30.058873 -0.716977 -0.682201 -0.162347
-1.281025 -0.036915 30.168624 -0.671809 -0.707324 -0.169198
-1.170338 -0.246502 30.219923 -0.636268 -0.700715 -0.169394
-1.171010 -0.224211 30.115249 -0.631842 -0.713098 -0.170537
-1.107768 -0.168303 30.118887 -0.634085 -0.711052 -0.168881
-1.099574 -0.199256 30.339564 -0.628861 -0.716501 -0.170541
-1.110774 -0.149119 30.544428 -0.639897 -0.724399 -0.173593
-1.031199 -0.245776 30.938108 -0.636055 -0.717962 -0.175324
-0.945286 -0.514245 31.459122 -0.621148 -0.701304 -0.176173
-1.026993 -0.747791 31.938167 -0.608126 -0.710275 -0.179386
-1.067329 -0.905440 32.337286 -0.599051 -0.712206 -0.179640
-1.077058 -1.015795 32.729516 -0.592745 -0.728085 -0.183381
-1.060952 -1.143160 33.137847 -0.589488 -0.749151 -0.188905
-1.050964 -1.191261 33.459319 -0.602835 -0.768565 -0.194360
-1.099828 -1.240396 33.751603 -0.611102 -0.792041 -0.198237
-1.057907 -1.289788 34.047982 -0.614767 -0.791756 -0.196176
-1.036715 -1.307589 34.232924 -0.618301 -0.795975 -0.195132
-0.921663 -1.380652 34.406635 -0.614388 -0.779753 -0.192786
-0.935919 -1.438258 34.424447 -0.610011 -0.789690 -0.197014
-0.921247 -1.461287 34.210658 -0.602956 -0.801781 -0.201790
-0.931756 -1.536980 34.056847 -0.578861 -0.826731 -0.205370
-0.828571 -1.527673 33.708311 -0.561280 -0.839578 -0.205258
-0.864167 -1.535865 33.238208 -0.543581 -0.866516 -0.206942
-0.893750 -1.400357 32.589988 -0.550299 -0.875871 -0.207705
-0.956741 -1.412935 32.111827 -0.535551 -0.895446 -0.211580
-1.009455 -1.327558 31.397373 -0.542824 -0.906728 -0.212222
-0.893070 -1.154351 30.450106 -0.562391 -0.886982 -0.208332
-0.998516 -1.003580 29.605197 -0.551556 -0.907860 -0.213023
-1.011479 -0.689729 28.571091 -0.534976 -0.896568 -0.213885
-1.169851 -0.380641 27.429195 -0.508724 -0.918575 -0.222717
-1.216270 -0.179828 26.467182 -0.500461 -0.918292 -0.224387
-1.305917 -0.025170 25.432526 -0.487257 -0.942448 -0.224993
-1.353423 0.125567 24.373824 -0.467124 -0.971871 -0.224244
-1.268852 0.144721 23.741048 -0.418505 -0.999422 -0.225525
-1.173968 0.272250 22.945802 -0.399690 -1.008298 -0.221820
-1.190637 0.506424 22.008227 -0.410113 -1.017846 -0.221525
-1.260044 0.427686 21.404573 -0.374209 -1.009772 -0.218698
-1.274162 0.421048 20.662540 -0.346151 -0.992289 -0.213720
-1.315659 0.691536 19.565307 -0.352035 -0.998426 -0.212161
-1.314189 0.690645 18.695351 -0.312877 -1.017701 -0.211540
-1.221440 0.595204 17.982215 -0.265610 -1.026453 -0.211015
-1.191688 0.637846 16.808834 -0.244162 -1.052867 -0.210564
-1.222634 0.466326 15.822630 -0.194857 -1.080754 -0.212057
-1.252093 0.572237 14.597163 -0.177444 -1.091911 -0.211400
-1.331750 0.495584 13.198863 -0.130308 -1.112867 -0.209607
-1.340605 0.545292 11.869886 -0.096439 -1.119051 -0.206618
-1.421890 0.173835 10.847761 -0.016059 -1.122724 -0.203856
-1.392503 0.414919 9.101895 -0.028908 -1.093051 -0.195607
-1.537937 0.502001 7.723887 -0.009502 -1.105075 -0.194596
-1.566734 0.361647 6.663945 0.040929 -1.089318 -0.190755
-1.642855 -0.129500 6.060885 0.145465 -1.074891 -0.188728
-1.629988 0.323078 4.501585 0.101373 -1.049423 -0.184253
-1.893485 0.460902 3.291232 0.112398 -1.070089 -0.185556
-1.684824 0.130252 3.025830 0.196874 -1.014698 -0.176623
-1.769806 -0.081698 2.793424 0.261818 -1.019191 -0.173283
-1.544926 0.496488 1.429394 0.201771 -0.958844 -0.154352
-1.693182 0.477124 1.166579 0.234432 -0.984831 -0.154112
-1.319129 0.128420 1.306796 0.301473 -0.889673 -0.134921
-1.485397 0.393105 0.788300 0.274654 -0.910216 -0.136168
-1.418756 0.505271 0.600922 0.261651 -0.862810 -0.123861
-1.290250 0.309686 0.915886 0.288019 -0.821258 -0.112039
-1.338440 0.277740 1.189325 0.286404 -0.820660 -0.106216
-1.222904 0.442299 1.202286 0.246402 -0.789752 -0.094703
-1.282526 0.526353 1.510446 0.219466 -0.802488 -0.094526
-1.209833 0.337804 2.152635 0.239161 -0.778599 -0.090605
-1.196612 0.398207 2.267259 0.220822 -0.763198 -0.087478
-1.142689 0.549037 2.400263 0.188019 -0.742779 -0.084997
-1.143880 0.208536 2.722308 0.214010 -0.739279 -0.084143
-1.024300 0.129314 2.892541 0.207947 -0.713981 -0.078981
-1.144608 0.075987 2.833325 0.202179 -0.748230 -0.081376
-0.968307 -0.178666 2.872792 0.234565 -0.722527 -0.075582
-1.041632 -0.374459 2.889524 0.268240 -0.753266 -0.082500
-1.098833 -0.484627 2.728295 0.283392 -0.761506 -0.084147
-1.111615 -0.568816 2.549358 0.289672 -0.771996 -0.087807
-1.154292 -0.627483 2.474770 0.299767 -0.783588 -0.090011
-1.048735 -0.689821 2.410058 0.318534 -0.768423 -0.087580
-1.000696 -0.672614 2.389709 0.338565 -0.770783 -0.087614
-0.924245 -0.645469 2.399225 0.355107 -0.762128 -0.086533
-0.898934 -0.668921 2.556470 0.364731 -0.756235 -0.089022
-0.958292 -0.642041 2.789316 0.351371 -0.751146 -0.091712
-1.036498 -0.627998 3.175975 0.327760 -0.758471 -0.098110
-1.093118 -0.658614 3.636061 0.311614 -0.762251 -0.102454
-1.160785 -0.548809 4.070240 0.289441 -0.769936 -0.107318
-1.168003 -0.574229 4.833722 0.284809 -0.782149 -0.112515
-1.122791 -0.593998 5.563289 0.253841 -0.772219 -0.113990
-1.113871 -0.740492 6.662844 0.195945 -0.764390 -0.116279
-1.166004 -1.075896 7.891189 0.172190 -0.751801 -0.113735
-0.980411 -0.734396 8.603335 0.066395 -0.734151 -0.111669
-1.045330 -0.734507 10.006055 0.050146 -0.745756 -0.114121
-0.969599 -0.884457 11.637423 0.054053 -0.697506 -0.112804
-1.214152 -0.936764 13.032771 -0.002521 -0.649689 -0.111448
-1.341883 -0.867304 13.789070 -0.110358 -0.555840 -0.095165
-1.352980 -1.348082 15.460715 -0.097972 -0.525518 -0.094952
-1.190910 -1.714761 17.006574 -0.068536 -0.501698 -0.090386
-1.237875 -1.368905 17.347026 -0.138741 -0.515742 -0.091739
-1.304584 -1.553763 18.168893 -0.159215 -0.510372 -0.092863
-1.172468 -1.989382 18.935745 -0.147710 -0.481096 -0.092579
-1.241654 -2.121437 18.948551 -0.180551 -0.493721 -0.093534
-1.225221 -2.311224 19.047027 -0.187315 -0.507340 -0.093348
-1.101067 -2.642784 19.354318 -0.160914 -0.530003 -0.097597
-0.912603 -2.491815 19.244881 -0.173011 -0.536408 -0.099151
-0.813795 -2.407732 19.296849 -0.148631 -0.543224 -0.102248
-0.870200 -2.393820 19.609285 -0.126492 -0.544163 -0.105697
-1.064493 -2.191149 19.578140 -0.134986 -0.558526 -0.110023
-1.094953 -1.968859 19.711252 -0.134044 -0.562975 -0.112248
-0.963041 -1.828974 19.888930 -0.119686 -0.567147 -0.112389
-0.890923 -1.594004 19.993020 -0.154139 -0.579252 -0.115770
-0.945297 -1.569089 20.217930 -0.198761 -0.596469 -0.120659
-0.924826 -1.638543 20.731665 -0.223062 -0.605441 -0.123761
-0.874215 -1.386291 21.295662 -0.249996 -0.613031 -0.123673
-0.943155 -1.065970 21.724999 -0.282594 -0.630097 -0.126597
-1.085629 -1.113934 22.735180 -0.288329 -0.642957 -0.134160
-1.231144 -1.182685 23.547365 -0.304097 -0.652396 -0.140470
-1.275024 -0.970853 24.209944 -0.333265 -0.660121 -0.144246
-1.254657 -0.863796 25.090309 -0.333440 -0.655946 -0.145953
-1.293499 -0.837111 25.748555 -0.344773 -0.650909 -0.149439
-1.353573 -0.735540 26.239922 -0.376842 -0.646171 -0.151941
-1.297272 -0.693884 26.640731 -0.385172 -0.648912 -0.154445
-1.278500 -0.740242 27.010641 -0.370171 -0.666599 -0.157804
-1.230815 -0.735781 27.115411 -0.374234 -0.677804 -0.159124
-1.202779 -0.845461 27.343448 -0.360951 -0.698875 -0.163427
-1.130583 -1.105223 27.374179 -0.325709 -0.708665 -0.168911
-1.153548 -1.188771 27.272235 -0.315970 -0.717548 -0.172831
-1.183183 -1.371200 27.126876 -0.293979 -0.734462 -0.177100
-1.150554 -1.403741 26.899570 -0.287928 -0.745970 -0.177910
-1.116745 -1.315375 26.627417 -0.288806 -0.757910 -0.179049
-1.091454 -1.188135 26.305137 -0.300728 -0.760733 -0.180644
-1.139378 -1.165505 26.130462 -0.298746 -0.780358 -0.187718
-1.152075 -1.126488 25.750207 -0.305982 -0.786993 -0.192604
-1.185407 -1.048388 25.338324 -0.319120 -0.796074 -0.199110
-1.273258 -1.033007 24.903754 -0.309785 -0.814645 -0.207600
-1.321642 -0.926983 24.403847 -0.295104 -0.826682 -0.212513
-1.405864 -0.600975 23.457251 -0.304215 -0.841798 -0.214954
-1.430982 -0.370227 22.550956 -0.305575 -0.840745 -0.213991
-1.454589 -0.278871 21.747718 -0.291405 -0.849529 -0.212646
-1.401820 -0.130757 20.897743 -0.285142 -0.851339 -0.208247
-1.342968 0.010297 20.120490 -0.278860 -0.854711 -0.202325
-1.328150 -0.023134 19.538197 -0.256546 -0.861006 -0.197469
-1.320801 -0.093187 19.158598 -0.235932 -0.859457 -0.194437
-1.361657 -0.031998 18.654948 -0.238329 -0.853652 -0.190910
-1.379683 -0.008953 18.332108 -0.233385 -0.843042 -0.187300
-1.386790 0.018882 18.060806 -0.229854 -0.833013 -0.184152
-1.403328 0.144699 17.562236 -0.239515 -0.842762 -0.180423
-1.332975 0.255497 17.111714 -0.243627 -0.848195 -0.177719
-1.277351 0.204303 16.718612 -0.221419 -0.860994 -0.177959
-1.246684 0.170576 16.038869 -0.204736 -0.870589 -0.177240
-1.280446 0.138476 15.273535 -0.182045 -0.885523 -0.180002
-1.344797 0.057705 14.260472 -0.149084 -0.906598 -0.183083
-1.455734 0.018552 13.296259 -0.111853 -0.932980 -0.185245
-1.504364 -0.145547 12.280970 -0.061500 -0.948457 -0.185826
-1.575751 -0.192510 11.185797 -0.040522 -0.962396 -0.186104
-1.602849 -0.100365 9.878982 -0.036367 -0.964437 -0.183571
-1.596437 -0.155110 8.975936 -0.002584 -0.968107 -0.183026
-1.516326 -0.151215 8.051363 0.026914 -0.950142 -0.177435
-1.460552 0.161468 6.870316 0.022144 -0.946896 -0.174081
-1.464396 -0.101716 6.395958 0.094736 -0.960066 -0.173616
-1.419811 -0.157511 5.776948 0.121100 -0.937276 -0.166364
-1.535771 0.184055 4.743351 0.091211 -0.957081 -0.167322
-1.467457 -0.049846 4.592788 0.155511 -0.936366 -0.159245
-1.320033 -0.024106 4.272256 0.186779 -0.905172 -0.148471
-1.504917 0.378438 3.591433 0.147131 -0.927115 -0.146262
-1.483422 0.339561 3.659958 0.152588 -0.885714 -0.135688
-1.412680 0.290072 3.835550 0.155317 -0.853288 -0.128439
-1.408663 0.386810 3.899817 0.137488 -0.839372 -0.123769
-1.304921 0.530862 3.966667 0.113035 -0.803178 -0.114407
-1.215800 0.485373 4.335657 0.120751 -0.768039 -0.105862
-1.243710 0.388640 5.005276 0.137433 -0.754302 -0.101658
-1.280833 0.279970 5.568425 0.134288 -0.739395 -0.096437
-1.173936 0.241283 6.151757 0.083299 -0.689439 -0.088181
-1.302377 0.068197 6.862772 0.067222 -0.705110 -0.090300
-1.119114 -0.206977 7.754981 0.067892 -0.690407 -0.084880
-0.987513 -0.205828 8.375063 0.061484 -0.705568 -0.081993
-0.880418 -0.244527 9.069651 0.065957 -0.726004 -0.077800
-0.714418 -0.406705 9.708972 0.069372 -0.712938 -0.070295
-0.768107 -0.688227 10.377474 0.069909 -0.706774 -0.068946
-0.900687 -0.881702 10.821402 0.055762 -0.693786 -0.072827
-1.049048 -1.020063 10.992906 0.035773 -0.675913 -0.078303
-1.130228 -1.200089 11.198902 0.027362 -0.657278 -0.084987
-1.186224 -1.380094 11.467557 0.030169 -0.657573 -0.093147
-1.138310 -1.376135 11.611925 0.018426 -0.647922 -0.097179
-1.157308 -1.334952 11.775950 0.012345 -0.663451 -0.102517
-1.117215 -1.321549 12.063188 0.018901 -0.667939 -0.102425
-1.116546 -1.303061 12.395211 0.031719 -0.670440 -0.100242
-1.124024 -1.295404 12.690147 0.046042 -0.662646 -0.097303
-1.142940 -1.311016 13.107535 0.060708 -0.650942 -0.098380
-1.132364 -1.276137 13.462432 0.055871 -0.637586 -0.098199
-1.126636 -1.323949 13.862711 0.032524 -0.632985 -0.099650
-1.105543 -1.357225 14.194618 -0.008655 -0.614290 -0.098634
-1.118212 -1.401239 14.547620 -0.032195 -0.617600 -0.096769
-1.059779 -1.367327 14.828290 -0.037814 -0.624730 -0.094177
-1.012879 -1.292468 15.056468 -0.043179 -0.625971 -0.091237
-1.090825 -1.262699 15.215341 -0.046803 -0.637231 -0.092967
-1.142441 -1.340360 15.441644 -0.038182 -0.640692 -0.097121
-1.213480 -1.386629 15.469155 -0.037584 -0.648016 -0.102498
-1.285967 -1.340889 15.413302 -0.048941 -0.664017 -0.107817
-1.266015 -1.323945 15.332967 -0.053349 -0.676640 -0.110774
-1.221780 -1.296544 15.308694 -0.053080 -0.695273 -0.113718
-1.171948 -1.194629 15.179041 -0.063617 -0.702706 -0.114451
-1.151505 -1.073636 15.048616 -0.077563 -0.711582 -0.117501
-1.165602 -1.041438 15.049292 -0.077348 -0.712004 -0.119693
-1.211495 -0.979180 15.034453 -0.079786 -0.715130 -0.122512
-1.245745 -0.881487 14.928678 -0.089720 -0.716502 -0.123820
-1.251117 -0.879991 14.902220 -0.090007 -0.718329 -0.124194
-1.243068 -0.908759 14.881413 -0.086451 -0.719106 -0.123841
-1.244881 -0.844547 14.755608 -0.095237 -0.719718 -0.123032
-1.252509 -0.778147 14.617568 -0.101721 -0.721755 -0.122268
-1.254825 -0.711120 14.475556 -0.106063 -0.725846 -0.122093
-1.248177 -0.610906 14.312106 -0.115361 -0.724127 -0.119992
-1.246046 -0.528325 14.166166 -0.122802 -0.725807 -0.118669
-1.226554 -0.504724 14.112004 -0.121486 -0.724284 -0.117274
-1.208361 -0.496798 14.143050 -0.114206 -0.725256 -0.115893
-1.173746 -0.429144 14.146413 -0.117221 -0.723040 -0.114497
-1.168846 -0.432475 14.278363 -0.117563 -0.726194 -0.114376
-1.175447 -0.581586 14.682251 -0.105856 -0.729818 -0.115307
-1.089306 -0.457144 14.822354 -0.130587 -0.718825 -0.112245
-1.091217 -0.409131 15.366624 -0.125642 -0.744883 -0.114687
-1.058348 -0.466651 15.762662 -0.117744 -0.735627 -0.114146
-1.140410 -0.428691 16.212198 -0.136285 -0.715951 -0.114415
-1.251152 -0.436307 16.685584 -0.148635 -0.697702 -0.114498
-1.208870 -0.590055 17.390906 -0.136023 -0.666536 -0.112530
-1.210194 -0.572536 17.839916 -0.156016 -0.652571 -0.111950
-1.258162 -0.534508 18.264545 -0.177656 -0.653285 -0.111136
-1.214948 -0.631044 18.804285 -0.174272 -0.649127 -0.111338
-1.181228 -0.621766 19.185648 -0.180964 -0.641703 -0.112118
-1.194635 -0.546434 19.433809 -0.198621 -0.636470 -0.113416
-1.201665 -0.652670 19.882000 -0.196774 -0.624536 -0.113264
-1.294751 -0.819933 20.349877 -0.194956 -0.629345 -0.115328
-1.268753 -0.850147 20.637928 -0.208170 -0.626331 -0.115844
-1.175980 -0.938729 20.948127 -0.203944 -0.623017 -0.115301
-1.101066 -1.062469 21.363830 -0.191622 -0.630155 -0.118212
-1.114497 -1.054500 21.606837 -0.202548 -0.639287 -0.120318
-1.136847 -1.043872 21.738705 -0.219224 -0.647678 -0.123154
-1.137826 -1.117485 22.007835 -0.222214 -0.651762 -0.125003
-1.118886 -1.169986 22.199473 -0.227841 -0.654179 -0.126238
-1.078504 -1.114179 22.271853 -0.244899 -0.656920 -0.128261
-1.108577 -1.179736 22.541919 -0.239623 -0.671967 -0.132236
-1.088393 -1.286334 22.790204 -0.231179 -0.676965 -0.135627
-1.116766 -1.242725 22.880492 -0.245830 -0.686594 -0.139718
-1.158422 -1.298092 23.131682 -0.245053 -0.692875 -0.143180
-1.159944 -1.305698 23.321446 -0.249393 -0.692847 -0.145531
-1.218967 -1.201928 23.416326 -0.267599 -0.709176 -0.149575
-1.209956 -1.158652 23.568188 -0.276810 -0.714919 -0.151538
-1.191035 -1.147589 23.730827 -0.280393 -0.725915 -0.154893
-1.219089 -1.037090 23.728281 -0.295154 -0.738677 -0.158277
-1.243037 -0.994122 23.759007 -0.297252 -0.747742 -0.162289
-1.268340 -0.961908 23.743616 -0.297891 -0.752205 -0.164936
-1.325307 -0.918220 23.643218 -0.300743 -0.763436 -0.168252
-1.331953 -0.856890 23.496928 -0.305913 -0.772219 -0.170914
-1.343627 -0.812467 23.345314 -0.307476 -0.787011 -0.173576
-1.342316 -0.780928 23.197391 -0.307802 -0.798846 -0.176410
-1.362378 -0.730103 23.093407 -0.311226 -0.808558 -0.178807
-1.343393 -0.672310 22.989264 -0.316827 -0.802345 -0.178186
-1.361127 -0.627248 22.930656 -0.319996 -0.800228 -0.177734
-1.351508 -0.617489 22.921403 -0.315311 -0.791409 -0.175533
-1.338087 -0.588090 22.919396 -0.315343 -0.780416 -0.171641
-1.324905 -0.586366 22.939550 -0.317633 -0.770561 -0.168983
-1.313426 -0.613165 22.941374 -0.319785 -0.764423 -0.167263
-1.315912 -0.619402 22.954581 -0.321475 -0.764177 -0.166905
-1.301380 -0.596371 22.943793 -0.322828 -0.762796 -0.166501
-1.298154 -0.579237 22.918816 -0.321747 -0.764175 -0.166893
-1.308861 -0.542485 22.855791 -0.324374 -0.765236 -0.167064
-1.286499 -0.510135 22.730408 -0.328463 -0.762499 -0.166746
-1.271209 -0.507790 22.623735 -0.328195 -0.759185 -0.166034
-1.262048 -0.507618 22.447645 -0.325570 -0.758854 -0.166298
-1.270940 -0.555650 22.358397 -0.312651 -0.760331 -0.166367
-1.253631 -0.625459 22.187854 -0.296455 -0.755977 -0.164900
-1.236869 -0.627526 21.979541 -0.291733 -0.755334 -0.164508
-1.274111 -0.649465 21.841426 -0.285876 -0.761085 -0.164596
-1.273791 -0.708056 21.758677 -0.274802 -0.762944 -0.164348
-1.281177 -0.693234 21.618208 -0.273657 -0.762890 -0.163386
-1.299852 -0.626253 21.392813 -0.279608 -0.766206 -0.162372
-1.278342 -0.595890 21.245341 -0.280952 -0.761934 -0.160680
-1.263145 -0.590199 21.140192 -0.278303 -0.758016 -0.159160
-1.251925 -0.547702 21.042497 -0.282238 -0.751659 -0.156321
-1.243539 -0.509492 20.941967 -0.284661 -0.751171 -0.154954
-1.223306 -0.490752 20.932580 -0.283811 -0.746666 -0.152889
-1.216479 -0.478447 20.919893 -0.282974 -0.746585 -0.152402
-1.246936 -0.478900 20.910549 -0.281225 -0.752664 -0.152968
-1.240682 -0.479254 20.896629 -0.280542 -0.750516 -0.152178
-1.249440 -0.468004 20.891723 -0.280863 -0.750967 -0.152299
-1.256271 -0.455304 20.847352 -0.282543 -0.752209 -0.153024
-1.255834 -0.469800 20.792345 -0.280804 -0.751481 -0.152931
-1.252103 -0.482489 20.731413 -0.281196 -0.749692 -0.153064
-1.242662 -0.499719 20.653505 -0.281947 -0.747039 -0.153361
-1.255422 -0.533648 20.542085 -0.281859 -0.750169 -0.154873
-1.266993 -0.534214 20.415619 -0.283002 -0.752095 -0.155887
-1.272177 -0.507622 20.258285 -0.279728 -0.754256 -0.156684
-1.281526 -0.456329 20.050028 -0.273649 -0.762973 -0.158171
-1.297420 -0.406630 19.827661 -0.267574 -0.768993 -0.159392
-1.279701 -0.365784 19.620251 -0.264836 -0.765847 -0.159362
-1.280623 -0.369199 19.371352 -0.258810 -0.767200 -0.160306
-1.281079 -0.389981 19.054616 -0.249504 -0.764321 -0.160549
-1.279309 -0.391941 18.785476 -0.239511 -0.758492 -0.160324
-1.247634 -0.388912 18.466460 -0.234388 -0.749578 -0.159741
-1.265500 -0.433958 18.170824 -0.227798 -0.749395 -0.160795
-1.292500 -0.438852 17.870982 -0.225556 -0.751944 -0.161402
-1.275074 -0.360813 17.540685 -0.228478 -0.756480 -0.160145
-1.246116 -0.343927 17.248227 -0.218350 -0.763825 -0.157221
-1.195583 -0.321662 16.944629 -0.209951 -0.770186 -0.153156
-1.159418 -0.287016 16.587465 -0.206371 -0.773157 -0.148354
-1.153547 -0.286077 16.352584 -0.197726 -0.780120 -0.145808
-1.143133 -0.299156 16.105751 -0.186542 -0.782246 -0.143043
-1.165551 -0.252127 15.845044 -0.187847 -0.783329 -0.141249
-1.157089 -0.250495 15.646857 -0.186139 -0.773669 -0.137979
-1.183400 -0.274975 15.557900 -0.178983 -0.780586 -0.141023
-1.180503 -0.249824 15.463515 -0.179151 -0.784106 -0.144158
-1.185204 -0.252407 15.442760 -0.174871 -0.791045 -0.147466
-1.164207 -0.257726 15.461480 -0.172346 -0.797697 -0.151300
-1.194538 -0.260174 15.505863 -0.173380 -0.803971 -0.152605
-1.219639 -0.259888 15.540722 -0.176320 -0.797462 -0.150668
-1.237363 -0.287087 15.621020 -0.177079 -0.790564 -0.149046
-1.269900 -0.309433 15.666667 -0.177843 -0.787114 -0.147045
-1.264944 -0.317671 15.708462 -0.181252 -0.780323 -0.145526
-1.271714 -0.344703 15.772813 -0.181743 -0.774919 -0.145214
-1.301319 -0.386309 15.863451 -0.180571 -0.771879 -0.144745
-1.281883 -0.410692 15.989498 -0.181629 -0.762662 -0.142953
-1.243756 -0.375263 16.076712 -0.190149 -0.750345 -0.139137
-1.241830 -0.395803 16.268970 -0.186650 -0.751899 -0.138930
-1.221136 -0.520257 16.677343 -0.165323 -0.742362 -0.135876
-1.165395 -0.547339 16.949582 -0.156099 -0.730704 -0.131354
-1.117015 -0.554872 17.258546 -0.147294 -0.722246 -0.126499
-1.027398 -0.638633 17.756577 -0.129387 -0.708588 -0.121134
-0.981467 -0.762820 18.155322 -0.128756 -0.697378 -0.115669
-0.991547 -0.916836 18.667934 -0.153944 -0.683426 -0.109640
-0.973762 -1.110670 19.157090 -0.163396 -0.675477 -0.106384
-0.881251 -1.207369 19.445570 -0.167079 -0.652560 -0.100765
-0.866943 -1.208888 19.586341 -0.171435 -0.641977 -0.098672
-0.803722 -1.342110 19.757941 -0.157041 -0.622371 -0.096589
-0.874913 -1.387284 19.767148 -0.156061 -0.626448 -0.098582
-0.892775 -1.389576 19.668168 -0.162072 -0.622100 -0.100810
-0.932178 -1.478410 19.687779 -0.152695 -0.633318 -0.105700
-0.977135 -1.431267 19.545208 -0.161529 -0.648011 -0.110198
-0.922072 -1.377804 19.389079 -0.170110 -0.640116 -0.110496
-0.967393 -1.401687 19.331108 -0.167723 -0.650779 -0.113329
-1.037551 -1.364789 19.189565 -0.175346 -0.656240 -0.114939
-1.043172 -1.256983 18.928357 -0.189448 -0.646106 -0.114000
-1.071999 -1.181236 18.662231 -0.188437 -0.647102 -0.113837
-1.059489 -1.054248 18.374530 -0.188461 -0.644185 -0.112735
-1.010253 -0.860178 17.897627 -0.189320 -0.645310 -0.111940
-1.055632 -0.742299 17.410842 -0.186802 -0.664097 -0.112753
-1.027187 -0.667525 16.953765 -0.184894 -0.665825 -0.110652
-1.019968 -0.573076 16.554587 -0.180609 -0.682006 -0.111724
-0.942770 -0.448693 16.253008 -0.178168 -0.684390 -0.109658
-0.945141 -0.329643 16.105799 -0.181374 -0.700717 -0.109390
-0.957183 -0.153336 16.038025 -0.192544 -0.711083 -0.108082
-0.979207 -0.077584 16.062831 -0.193982 -0.722319 -0.108840
-0.948517 -0.035380 16.100045 -0.195440 -0.714471 -0.107302
-0.949847 0.013916 16.113452 -0.203280 -0.713799 -0.108433
-0.935608 -0.023196 16.168699 -0.200187 -0.704714 -0.107231
-0.956074 -0.108242 16.273110 -0.190859 -0.702193 -0.107404
-1.001891 -0.170650 16.299722 -0.188161 -0.696288 -0.106047
-1.033292 -0.180984 16.348088 -0.198881 -0.695077 -0.106490
-1.048560 -0.379654 16.625528 -0.181930 -0.696940 -0.107108
-1.050514 -0.426142 16.778777 -0.183563 -0.700328 -0.107796
-1.091739 -0.444527 16.897860 -0.188840 -0.711335 -0.107701
-1.088700 -0.540941 17.110183 -0.178219 -0.718036 -0.109293
-1.051408 -0.614811 17.291287 -0.174020 -0.714422 -0.109632
-1.052617 -0.584463 17.320146 -0.186435 -0.713738 -0.110254
-1.047984 -0.661582 17.344033 -0.181148 -0.707503 -0.110601
-1.070496 -0.761609 17.343319 -0.170000 -0.701428 -0.111700
-1.112617 -0.849146 17.245617 -0.163795 -0.699893 -0.112597
-1.085596 -0.888807 17.099324 -0.169566 -0.690892 -0.112883
-1.128301 -1.052416 17.125298 -0.155831 -0.693454 -0.114567
-1.146143 -1.055046 16.986610 -0.164684 -0.688989 -0.114270
-1.205893 -1.018775 16.819188 -0.172892 -0.694934 -0.115784
-1.194774 -0.966307 16.629230 -0.168554 -0.694609 -0.115912
-1.156774 -0.821918 16.301600 -0.164327 -0.696962 -0.116574
-1.133440 -0.656352 15.924293 -0.165657 -0.696922 -0.115478
-1.109169 -0.578103 15.499040 -0.158169 -0.702287 -0.115672
-1.127018 -0.528285 15.063783 -0.157586 -0.706044 -0.115806
-1.128361 -0.441468 14.622215 -0.159875 -0.712095 -0.116222
-1.098761 -0.418574 14.312024 -0.142324 -0.731016 -0.115803
-1.078452 -0.273701 13.955008 -0.143858 -0.754907 -0.115439
-1.124418 -0.266196 13.777336 -0.141792 -0.775484 -0.116355
-1.147702 -0.320564 13.892078 -0.138131 -0.778310 -0.116178
-1.155984 -0.259700 13.874357 -0.147819 -0.780774 -0.116870
-1.093712 -0.092865 14.008481 -0.153560 -0.780495 -0.119910
-1.039000 -0.150103 14.577529 -0.111266 -0.790808 -0.125910
-0.987269 -0.123224 15.071237 -0.103026 -0.797049 -0.131092
-1.111771 -0.072882 15.442156 -0.144818 -0.800243 -0.135046
-1.203157 -0.500684 16.433061 -0.154634 -0.792844 -0.139687
-1.210069 -0.777313 17.365005 -0.161440 -0.778904 -0.140504
-1.255956 -0.701185 17.935651 -0.182908 -0.795649 -0.145205
-1.284741 -0.736365 18.677889 -0.180695 -0.803316 -0.148262
-1.281671 -0.972706 19.542978 -0.172840 -0.787682 -0.150644
-1.351253 -1.007452 19.943612 -0.213416 -0.760965 -0.154401
-1.371399 -1.092890 20.508910 -0.226900 -0.735605 -0.152634
-1.310799 -1.234769 21.151568 -0.216405 -0.702573 -0.147380
-1.401539 -1.167868 21.543628 -0.244054 -0.695202 -0.149998
-1.401410 -1.260927 22.109829 -0.254375 -0.692599 -0.152333
-1.286717 -1.378713 22.786286 -0.257911 -0.676319 -0.152893
-1.290669 -1.337328 23.264979 -0.274071 -0.684131 -0.155263
-1.301774 -1.314581 23.774389 -0.282395 -0.686954 -0.153769
-1.298629 -1.372705 24.329572 -0.285097 -0.681711 -0.150704
-1.276100 -1.390754 24.726957 -0.303751 -0.660722 -0.142420
-1.239684 -1.408833 25.080551 -0.317236 -0.638271 -0.137311
-1.209336 -1.433163 25.237794 -0.322478 -0.624163 -0.137738
-1.165267 -1.413315 25.282577 -0.326164 -0.626539 -0.141577
-1.118526 -1.395955 25.185089 -0.326884 -0.634501 -0.144346
-1.113058 -1.338716 25.069483 -0.327795 -0.653864 -0.148284
-1.093906 -1.349224 24.793269 -0.316121 -0.672525 -0.151986
-1.182945 -1.403809 24.580458 -0.291958 -0.719423 -0.160440
-1.110611 -1.332252 24.257217 -0.295857 -0.723616 -0.162115
-1.295531 -1.316732 23.919435 -0.289238 -0.771115 -0.170386
-1.300392 -1.343766 23.629212 -0.280020 -0.778730 -0.175333
-1.362756 -1.216548 23.147345 -0.295056 -0.797597 -0.181383
-1.344559 -1.039609 22.555004 -0.319219 -0.796457 -0.182610
-1.325412 -0.888715 21.974270 -0.330818 -0.798504 -0.184571
-1.367001 -0.643459 21.253774 -0.329707 -0.809842 -0.186623
-1.372135 -0.288993 20.445883 -0.326666 -0.819163 -0.188403
-1.406337 -0.184003 19.648336 -0.300515 -0.826158 -0.188129
-1.438807 -0.129407 18.891306 -0.280945 -0.837894 -0.188712
-1.464007 -0.115864 18.158907 -0.256914 -0.850274 -0.187151
-1.472424 -0.137749 17.434842 -0.226240 -0.857476 -0.185627
-1.458075 -0.117574 16.766135 -0.208872 -0.851695 -0.183860
-1.491853 0.146394 15.744556 -0.229654 -0.850914 -0.181021
-1.454711 0.168014 15.104855 -0.205041 -0.857222 -0.177818
-1.337993 0.246992 14.331198 -0.185988 -0.859171 -0.170803
-1.306718 0.611349 13.211929 -0.211860 -0.870816 -0.162903
-1.231629 0.653318 12.467794 -0.189075 -0.878588 -0.156065
-1.176376 0.427981 12.045856 -0.128747 -0.882311 -0.154702
-1.213692 0.562662 11.297137 -0.126273 -0.900327 -0.161140
-1.292315 0.488037 10.914195 -0.101169 -0.925641 -0.169441
-1.349734 0.320278 10.923894 -0.073939 -0.941716 -0.169629
-1.394244 0.387416 10.849160 -0.087233 -0.943634 -0.162698
-1.446148 0.413471 10.930625 -0.096944 -0.931616 -0.156347
-1.501008 0.466794 11.045733 -0.111435 -0.904797 -0.151882
-1.572679 0.516922 11.227517 -0.124969 -0.871538 -0.148167
-1.506080 0.419172 11.591041 -0.115000 -0.816515 -0.140140
-1.408203 0.267299 12.030188 -0.093157 -0.779478 -0.134096
-1.283929 0.234274 12.079233 -0.094699 -0.742148 -0.124463
-1.177622 0.077309 12.441077 -0.085571 -0.722663 -0.118281
-1.114425 -0.308880 12.960202 -0.053221 -0.700504 -0.107871
-1.011145 -0.465158 13.107392 -0.054658 -0.686966 -0.098043
-1.078533 -0.514332 13.120092 -0.060792 -0.702224 -0.091089
-0.965128 -0.725738 13.298015 -0.041917 -0.682971 -0.082077
-0.974410 -0.850895 13.315451 -0.034786 -0.688564 -0.078898
-0.850910 -0.837806 13.211729 -0.051692 -0.659001 -0.070399
-0.836839 -0.917950 13.126193 -0.056762 -0.655866 -0.070080
-0.806828 -1.003009 13.059584 -0.058887 -0.645098 -0.069315
-0.815392 -1.074318 13.078434 -0.045188 -0.646024 -0.069636
-0.770823 -0.995356 12.914131 -0.039931 -0.647277 -0.069359
-0.843072 -0.906658 12.748914 -0.028506 -0.671029 -0.072994
-0.937404 -0.869426 12.579091 -0.020338 -0.683022 -0.076047
-1.133740 -0.870820 12.438743 -0.018625 -0.715331 -0.085490
-1.209390 -0.805464 12.136800 -0.027296 -0.731882 -0.093978
-1.207420 -0.774583 11.872652 -0.015726 -0.750627 -0.102648
-1.176267 -0.651497 11.579281 -0.020529 -0.754459 -0.105378
-1.205351 -0.624811 11.339362 -0.021501 -0.756035 -0.107855
-1.198467 -0.623880 11.107715 -0.025605 -0.737829 -0.108681
-1.174970 -0.623292 10.872091 -0.027821 -0.729399 -0.112048
-1.177050 -0.547609 10.617510 -0.032317 -0.737131 -0.115811
-1.253543 -0.471044 10.395949 -0.032414 -0.769801 -0.122350
-1.301664 -0.404495 10.229455 -0.034263 -0.791660 -0.124760
-1.341410 -0.401002 10.164226 -0.029070 -0.814284 -0.127475
-1.296508 -0.394937 10.135361 -0.026051 -0.816358 -0.126939
-1.290498 -0.429041 10.224730 -0.020234 -0.817970 -0.126560
-1.241218 -0.380301 10.312793 -0.029765 -0.814629 -0.126075
-1.199392 -0.417259 10.488849 -0.028168 -0.813952 -0.126557
-1.157292 -0.416864 10.813093 -0.028871 -0.801696 -0.124621
-1.127214 -0.408140 11.199978 -0.028461 -0.797077 -0.126400
-1.137086 -0.306787 11.447975 -0.037424 -0.784327 -0.125197
-1.217441 -0.320725 11.939684 -0.026034 -0.785667 -0.127527
-1.268618 -0.495296 12.556011 -0.018302 -0.772974 -0.126197
-1.330118 -0.626689 13.100227 -0.049677 -0.762342 -0.125961
-1.354972 -0.855138 13.852392 -0.063741 -0.756213 -0.124706
-1.241235 -0.986114 14.669818 -0.061985 -0.748653 -0.120397
-1.113144 -0.793874 15.243115 -0.089429 -0.754110 -0.116867
-1.162936 -0.764319 16.019274 -0.113813 -0.754540 -0.116030
-1.210509 -1.016418 17.224126 -0.126426 -0.718320 -0.115765
-1.242584 -1.031542 18.151682 -0.163422 -0.684815 -0.116207
-1.288744 -0.887108 18.891473 -0.199628 -0.672288 -0.119160
-1.305103 -1.114520 20.192628 -0.177226 -0.662225 -0.125378
-1.336945 -1.153181 21.038808 -0.207487 -0.643876 -0.127628
-1.337317 -1.179817 21.694840 -0.252977 -0.637924 -0.126335
-1.199315 -1.444903 22.473919 -0.237522 -0.604228 -0.117861
-1.255269 -1.502168 23.014589 -0.246077 -0.587452 -0.113510
-1.328783 -1.395660 23.085987 -0.271854 -0.580403 -0.114462
-1.236078 -1.499147 23.560267 -0.264757 -0.570976 -0.116594
-1.068070 -1.552656 23.900033 -0.265741 -0.574356 -0.117968
-0.980643 -1.540187 24.106202 -0.278972 -0.589640 -0.118437
-0.910837 -1.692247 24.427461 -0.266449 -0.598536 -0.117209
-0.850972 -1.759429 24.657635 -0.262898 -0.603236 -0.117345
-0.836993 -1.621224 24.651887 -0.289460 -0.598688 -0.117332
-0.824153 -1.602278 24.721662 -0.293672 -0.593385 -0.118386
-0.816953 -1.536958 24.665421 -0.302773 -0.595401 -0.119169
-0.788461 -1.415608 24.550445 -0.317012 -0.596419 -0.116633
-0.678495 -1.370952 24.395892 -0.318232 -0.588594 -0.113019
-0.605616 -1.372774 24.300314 -0.313347 -0.582482 -0.111860
-0.595693 -1.352072 24.162655 -0.313447 -0.574077 -0.110199
-0.613870 -1.411529 24.141314 -0.301043 -0.572709 -0.109640
-0.655082 -1.340950 24.027149 -0.306345 -0.582146 -0.110513
-0.680724 -1.238575 23.941195 -0.312946 -0.588063 -0.110809
-0.670303 -1.140273 23.931661 -0.319521 -0.590634 -0.111238
-0.658319 -1.014060 23.881248 -0.338763 -0.589390 -0.110892
-0.664983 -0.989169 23.888315 -0.346091 -0.590360 -0.110648
-0.644416 -0.955017 23.930968 -0.352036 -0.584706 -0.109767
-0.611256 -0.913402 24.010465 -0.353474 -0.577760 -0.108541
-0.614757 -0.921879 24.100714 -0.347015 -0.571761 -0.107320
-0.574363 -0.864045 24.170600 -0.353137 -0.561745 -0.105712
-0.584274 -0.818715 24.200840 -0.359412 -0.568060 -0.106058
-0.620610 -0.824288 24.261823 -0.357738 -0.580502 -0.106943
-0.642307 -0.779739 24.192108 -0.362134 -0.582927 -0.106467
-0.673019 -0.723629 24.058774 -0.367703 -0.584673 -0.105993
-0.672363 -0.757329 23.949511 -0.358883 -0.579205 -0.104944
-0.675016 -0.779506 23.723285 -0.347453 -0.571121 -0.102725
-0.691642 -0.752547 23.397345 -0.340870 -0.563669 -0.100615
-0.721799 -0.797322 23.065343 -0.324649 -0.561919 -0.100580
-0.700547 -0.794657 22.726020 -0.317769 -0.555740 -0.100085
-0.735117 -0.751941 22.353450 -0.314598 -0.564251 -0.101178
-0.738333 -0.631938 22.016652 -0.319448 -0.574027 -0.101732
-0.747654 -0.563331 21.877756 -0.314360 -0.598517 -0.104729
-0.729969 -0.422648 21.799947 -0.320338 -0.615068 -0.103830
-0.685349 -0.217237 21.847784 -0.340332 -0.624116 -0.103079
-0.639263 -0.145527 21.987566 -0.349024 -0.622471 -0.102752
-0.680692 -0.114322 22.036337 -0.359448 -0.618943 -0.101858
-0.652807 -0.111797 22.150444 -0.366540 -0.606308 -0.101089
-0.633853 -0.196763 22.307474 -0.362402 -0.598971 -0.100398
-0.609311 -0.206484 22.435905 -0.370957 -0.596293 -0.100257
-0.580824 -0.205677 22.543724 -0.381691 -0.589412 -0.097948
-0.586640 -0.288162 22.818258 -0.378856 -0.591254 -0.097690
-0.630676 -0.469001 23.337927 -0.364107 -0.596764 -0.098825
-0.636610 -0.585252 23.799042 -0.358896 -0.593670 -0.100118
-0.708238 -0.722754 24.307431 -0.350568 -0.597130 -0.102576
-0.703960 -0.879149 24.805347 -0.341392 -0.587087 -0.103933
-0.715731 -1.029062 25.122817 -0.336536 -0.581114 -0.105294
-0.735785 -1.083527 25.292009 -0.342954 -0.573177 -0.107512
-0.719333 -1.177495 25.379646 -0.338365 -0.558407 -0.109554
-0.693440 -1.247463 25.529161 -0.330667 -0.549242 -0.111234
-0.678149 -1.228683 25.576692 -0.334063 -0.543339 -0.110888
-0.703812 -1.175320 25.630450 -0.343878 -0.543746 -0.110292
-0.730238 -1.221254 25.832253 -0.341776 -0.542693 -0.109723
-0.735792 -1.284470 26.012544 -0.340592 -0.540589 -0.108972
-0.752719 -1.284612 26.177135 -0.349682 -0.536982 -0.108091
-0.762357 -1.347568 26.468122 -0.350578 -0.533165 -0.108080
-0.762314 -1.284554 26.750095 -0.364566 -0.529115 -0.107703
-0.761965 -1.187965 26.913237 -0.385032 -0.530222 -0.107326
-0.722284 -1.128953 27.274634 -0.400378 -0.517933 -0.106235
-0.690815 -1.035940 27.660664 -0.423402 -0.507638 -0.106032
-0.713257 -0.982250 28.070872 -0.441758 -0.502869 -0.106367
-0.726222 -0.987090 28.532222 -0.450347 -0.498560 -0.107563
-0.707788 -1.002289 29.068049 -0.451245 -0.496347 -0.108631
-0.700960 -1.017715 29.558844 -0.447591 -0.502997 -0.109643
-0.696162 -1.046463 29.991122 -0.445160 -0.508746 -0.110947
-0.719999 -1.075953 30.333625 -0.452359 -0.521925 -0.113167
-0.682695 -1.086137 30.559791 -0.460600 -0.533029 -0.115569
-0.568768 -1.153533 30.792775 -0.455653 -0.536812 -0.117185
-0.519710 -1.074235 30.847185 -0.471736 -0.543165 -0.118377
-0.502971 -1.097304 30.982984 -0.474432 -0.549457 -0.119077
-0.464606 -1.168459 31.139367 -0.471093 -0.546650 -0.118238
-0.449866 -1.228169 31.317602 -0.468829 -0.547888 -0.119184
-0.438414 -1.259972 31.476885 -0.469823 -0.549352 -0.120264
-0.465938 -1.338760 31.668510 -0.465611 -0.560758 -0.123146
-0.494205 -1.370749 31.821119 -0.469387 -0.575338 -0.124604
-0.477287 -1.372276 31.867853 -0.473635 -0.581363 -0.123138
-0.421872 -1.311098 31.814266 -0.482158 -0.578936 -0.121485
-0.419541 -1.284220 31.718055 -0.484138 -0.580590 -0.121888
-0.403461 -1.229991 31.575933 -0.489721 -0.575543 -0.121617
-0.369475 -1.185056 31.441292 -0.492881 -0.569864 -0.121563
-0.345958 -1.165271 31.269256 -0.490492 -0.571189 -0.122012
-0.340617 -1.191140 31.172859 -0.480624 -0.577138 -0.122802
-0.346481 -1.189146 31.029838 -0.473997 -0.584697 -0.122515
-0.363352 -1.152786 30.866842 -0.473075 -0.595665 -0.122762
-0.392633 -1.121062 30.623288 -0.470458 -0.607947 -0.122891
-0.392434 -1.054368 30.328766 -0.473221 -0.607042 -0.121177
-0.401161 -1.006869 30.020779 -0.472447 -0.608372 -0.120641
-0.391972 -0.972120 29.665002 -0.468140 -0.604002 -0.118941
-0.373489 -0.944236 29.269876 -0.461542 -0.596432 -0.115808
-0.380435 -0.954526 28.922680 -0.451680 -0.590189 -0.112630
-0.406105 -0.977470 28.719897 -0.440388 -0.592716 -0.111272
-0.413397 -0.941072 28.570393 -0.436538 -0.597648 -0.109945
-0.414799 -0.787954 28.501765 -0.451480 -0.604377 -0.107674
-0.422688 -0.657242 28.437955 -0.466636 -0.615422 -0.106602
-0.430100 -0.516668 28.513900 -0.488220 -0.619896 -0.104647
-0.423009 -0.453957 28.568033 -0.504258 -0.617787 -0.103659
-0.418331 -0.434679 28.608545 -0.515396 -0.611554 -0.102316
-0.392045 -0.467411 28.786802 -0.517043 -0.599975 -0.101057
-0.380664 -0.525581 29.054265 -0.511035 -0.587362 -0.099075
-0.365786 -0.418867 29.206823 -0.529598 -0.578965 -0.098291
-0.352142 -0.558483 29.669033 -0.519510 -0.585424 -0.100341
-0.261885 -0.705795 30.205391 -0.526373 -0.578480 -0.101571
-0.315210 -0.776210 30.702759 -0.547599 -0.574890 -0.101547
-0.387841 -0.911423 31.426730 -0.542322 -0.569354 -0.103991
-0.421586 -0.992603 32.120256 -0.537812 -0.542096 -0.101711
-0.472500 -0.894947 32.693535 -0.560078 -0.516353 -0.099892
-0.441950 -0.963808 33.315144 -0.568417 -0.489620 -0.101214
-0.558320 -1.024691 34.018052 -0.580929 -0.504976 -0.109821
-0.708119 -1.136663 35.063166 -0.591695 -0.523169 -0.120264
-0.782523 -1.217673 35.799385 -0.598875 -0.528327 -0.126415
-0.980310 -1.209159 36.532899 -0.621964 -0.564947 -0.139849
-1.118091 -1.344216 37.717664 -0.611577 -0.611964 -0.154267
-1.239978 -1.568608 38.785882 -0.597247 -0.651216 -0.163191
-1.191499 -1.445031 39.339289 -0.650827 -0.676906 -0.171389
-1.344786 -1.523938 40.026023 -0.665296 -0.731483 -0.181932
-1.323615 -1.796441 40.998849 -0.639031 -0.742573 -0.189650
-1.277218 -1.696049 41.492335 -0.665731 -0.732882 -0.186808
-1.324249 -1.559402 41.647376 -0.696534 -0.784454 -0.193719
-1.010705 -1.814445 42.195742 -0.671423 -0.775245 -0.194869
-1.155873 -2.047198 42.585545 -0.642809 -0.837626 -0.205993
-1.149172 -2.139859 42.426138 -0.626785 -0.892109 -0.220461
-1.023094 -2.214076 42.256423 -0.605166 -0.911737 -0.222303
-1.016233 -2.264787 42.068331 -0.582811 -0.964038 -0.233035
-0.983772 -2.152990 41.690084 -0.591806 -0.938648 -0.227816
-1.140118 -2.001158 41.361244 -0.605996 -0.976494 -0.239734
-0.790583 -1.706250 41.144859 -0.635250 -0.908442 -0.228219
-0.783526 -1.289132 40.930534 -0.648581 -0.944744 -0.233879
-0.827610 -1.000070 40.781737 -0.638695 -0.985568 -0.245119
-1.000667 -0.899605 40.669172 -0.639235 -0.985045 -0.245725
-1.123403 -0.872545 40.487958 -0.651755 -0.984107 -0.250983
-1.269105 -0.850501 40.307036 -0.664213 -0.986896 -0.250711
-1.092088 -0.800565 40.133701 -0.664630 -0.960903 -0.247254
-1.116487 -0.656119 39.895516 -0.665605 -0.997858 -0.254308
-1.286825 -0.504000 39.586747 -0.670687 -1.036259 -0.260050
-1.211356 -0.427264 39.261299 -0.675181 -0.996850 -0.255053
-0.990348 -0.461709 38.926868 -0.661007 -0.960232 -0.257417
-1.416402 -0.503249 38.644927 -0.643741 -1.000363 -0.267603
-1.207117 -0.511709 38.137631 -0.632261 -0.924260 -0.267218
-1.278106 -0.488269 37.657467 -0.618889 -0.911476 -0.274303
-1.607400 -0.520531 37.335579 -0.593531 -0.963098 -0.286054
-1.476443 -0.453263 36.938769 -0.586434 -0.937273 -0.282853
-1.327152 -0.267539 36.472727 -0.597571 -0.930497 -0.281697
-1.458609 -0.137702 36.136131 -0.601650 -0.987119 -0.292566
-1.518018 -0.016771 35.813108 -0.612982 -0.970477 -0.290085
-1.432416 0.087623 35.463973 -0.624745 -0.925093 -0.286772
-1.804045 0.181239 35.292824 -0.626843 -0.978634 -0.295677
-1.683373 0.345889 35.064735 -0.638718 -0.945309 -0.287529
-1.587249 0.485089 34.831128 -0.645078 -0.931264 -0.285827
-1.685617 0.486847 34.688539 -0.633811 -0.937693 -0.285738
-1.766879 0.438281 34.560262 -0.624229 -0.930296 -0.283019
-1.788839 0.394627 34.362947 -0.616583 -0.918885 -0.278868
-1.764382 0.345827 34.188930 -0.606711 -0.908660 -0.274227
-1.654904 0.243659 34.066521 -0.589089 -0.896391 -0.270259
-1.589020 0.210850 33.882992 -0.580972 -0.890938 -0.267485
-1.580258 0.133305 33.667044 -0.558214 -0.889945 -0.264820
-1.605850 0.025100 33.440494 -0.528863 -0.889660 -0.260872
-1.598919 -0.051582 33.276376 -0.511892 -0.881617 -0.256833
-1.543057 -0.125786 32.985924 -0.494249 -0.862437 -0.250811
-1.505380 -0.205576 32.740282 -0.476024 -0.847784 -0.246651
-1.486970 -0.252052 32.420318 -0.456365 -0.835173 -0.242705
-1.469820 -0.256135 32.045578 -0.438267 -0.819429 -0.237116
-1.487724 -0.174540 31.570904 -0.430395 -0.813322 -0.231524
-1.482476 -0.111110 31.055321 -0.425138 -0.804368 -0.226472
-1.425532 -0.101162 30.538567 -0.419524 -0.788058 -0.222154
-1.401437 -0.064268 30.041716 -0.417678 -0.779150 -0.219181
-1.380122 -0.047451 29.661663 -0.408075 -0.777989 -0.216395
-1.354810 -0.017850 29.291066 -0.395785 -0.777428 -0.211808
-1.351418 0.047612 28.984331 -0.391808 -0.782475 -0.208017
-1.380890 0.108109 28.760381 -0.394444 -0.791128 -0.204351
-1.310129 0.073458 28.700100 -0.388136 -0.783638 -0.198816
-1.271625 0.007060 28.694071 -0.379504 -0.783634 -0.195894
-1.214940 -0.037165 28.619870 -0.376315 -0.770539 -0.189801
-1.210163 -0.079023 28.564415 -0.370916 -0.769164 -0.187939
-1.192546 -0.128994 28.508743 -0.365317 -0.756877 -0.184345
-1.193885 -0.213225 28.462617 -0.354579 -0.748331 -0.182702
-1.188846 -0.171911 28.277558 -0.358494 -0.737957 -0.179797
-1.185196 -0.140490 28.071535 -0.355911 -0.739492 -0.177893
-1.193692 -0.141652 27.751766 -0.348349 -0.745528 -0.176488
-1.219139 -0.237434 27.482333 -0.333139 -0.758075 -0.178316
-1.292018 -0.315503 26.985106 -0.325247 -0.774305 -0.180702
-1.330065 -0.384964 26.381494 -0.313759 -0.793797 -0.183737
-1.363172 -0.484463 25.915363 -0.279939 -0.821450 -0.187652
-1.273601 -0.442886 25.027964 -0.253709 -0.832448 -0.186754
-1.276164 -0.332709 24.076888 -0.241533 -0.855710 -0.187335
-1.281601 -0.393381 23.256663 -0.217488 -0.870503 -0.186359
-1.249487 -0.546348 22.453810 -0.185691 -0.877615 -0.183176
-1.193908 -0.304536 21.197832 -0.200369 -0.880866 -0.177300
-1.196693 -0.111978 20.313434 -0.175037 -0.906360 -0.176045
-1.145900 -0.191255 19.615085 -0.108387 -0.910707 -0.170793
-1.140653 -0.209267 18.891973 -0.075027 -0.906425 -0.167690
-1.207823 0.067811 17.517345 -0.106692 -0.903015 -0.165378
-1.229960 0.101871 16.694364 -0.105998 -0.904951 -0.164278
-1.280780 -0.177832 16.308822 -0.042849 -0.919306 -0.164325
-1.215373 -0.162184 15.498095 -0.015122 -0.905208 -0.157999
-1.343670 0.235377 14.241922 -0.024389 -0.937947 -0.159195
-1.468794 0.177840 13.826504 0.024159 -0.962056 -0.158454
-1.219991 0.125775 13.089941 0.059239 -0.909888 -0.143466
-1.234814 0.415328 12.042219 0.036413 -0.918968 -0.142252
-1.442640 0.599511 10.959745 0.022586 -0.941486 -0.142049
-1.328979 0.479799 10.345422 0.066213 -0.898595 -0.132955
-1.356779 0.272303 9.777681 0.128149 -0.909960 -0.133471
-1.410127 0.193136 9.042089 0.171264 -0.912791 -0.129928
-1.267864 0.712303 7.261648 0.116168 -0.864366 -0.117455
-1.368413 0.785520 6.095184 0.123460 -0.867335 -0.116786
-1.473974 0.522101 5.682324 0.180233 -0.860801 -0.116749
-1.458475 -0.012376 5.433465 0.272407 -0.836994 -0.116718
-1.574700 0.160571 4.195349 0.257434 -0.827327 -0.114909
-1.587236 0.685059 2.832764 0.196413 -0.830012 -0.119164
-1.685422 0.638961 2.084299 0.220313 -0.834885 -0.120749
-1.474347 0.119299 2.354055 0.319617 -0.810981 -0.122074
-1.538779 -0.116883 2.140261 0.364958 -0.818707 -0.121856
-1.166501 0.515083 0.930226 0.280506 -0.746134 -0.107743
-1.481825 0.779791 0.444528 0.252446 -0.805792 -0.117906
-1.187606 0.239928 0.721220 0.328969 -0.745024 -0.110408
-1.091746 0.088898 1.039416 0.354320 -0.718199 -0.110725
-1.344122 0.502193 0.531123 0.292484 -0.743564 -0.114923
-1.409732 0.669908 0.375782 0.258728 -0.745061 -0.116108
-1.464379 0.430155 0.954790 0.281122 -0.731087 -0.108024
-1.374409 0.328795 1.424227 0.280839 -0.727532 -0.106043
-1.273893 0.565402 1.529152 0.237300 -0.707777 -0.099253
-1.372269 0.864669 1.550020 0.194527 -0.723346 -0.099834
-1.301333 0.794985 1.995337 0.204708 -0.718332 -0.099756
-1.395962 0.509800 2.650690 0.234739 -0.739397 -0.105522
-1.402493 0.494459 2.863677 0.210647 -0.721081 -0.102650
-1.303084 0.547004 2.854987 0.171877 -0.700496 -0.099097
-1.330741 0.449597 3.133642 0.164774 -0.709585 -0.094574
-1.070847 0.218135 3.295148 0.189393 -0.685185 -0.085770
-1.145630 0.149206 3.373075 0.194484 -0.718421 -0.086932
-1.290076 0.092862 3.230398 0.188171 -0.742545 -0.087441
-1.358213 -0.092831 3.229130 0.200571 -0.756628 -0.092388
-1.287807 -0.331167 3.313480 0.232671 -0.736526 -0.090607
-1.242614 -0.494128 3.289650 0.271083 -0.742632 -0.092349
-1.061747 -0.429381 2.885341 0.320367 -0.744771 -0.090091
-1.104201 -0.458153 2.808003 0.341076 -0.758656 -0.090760
-1.037341 -0.593898 2.829341 0.366465 -0.746515 -0.087578
-1.040989 -0.603704 2.921859 0.355646 -0.730076 -0.084089
-1.003310 -0.703333 2.975608 0.347118 -0.713764 -0.080432
-0.859623 -0.746890 3.182442 0.334878 -0.689311 -0.076118
-0.804573 -0.753624 3.447198 0.328042 -0.681563 -0.072781
-0.879367 -0.770108 3.749054 0.327625 -0.711555 -0.076035
-0.967922 -0.762085 4.273869 0.329063 -0.733657 -0.078092
-0.953407 -0.735801 4.815315 0.314879 -0.737371 -0.079654
-0.930198 -0.817124 5.497251 0.295545 -0.732862 -0.082077
-0.848494 -1.205564 6.579215 0.285719 -0.703799 -0.082982
-0.861983 -1.159415 7.346139 0.217691 -0.676301 -0.082556
-0.983052 -1.064336 7.936479 0.145509 -0.692959 -0.088163
-1.012536 -1.337229 9.375358 0.162758 -0.698744 -0.088807
-0.800790 -1.469093 10.645297 0.175890 -0.672207 -0.083600
-0.871652 -0.982388 11.523541 0.085356 -0.675687 -0.091266
-0.879108 -0.829244 11.991414 0.040310 -0.641322 -0.090814
-0.874005 -1.205487 12.879143 0.036593 -0.589765 -0.096332
-1.048837 -1.457725 13.949260 0.023303 -0.574670 -0.108909
-1.171440 -1.552236 14.296674 -0.002529 -0.574434 -0.120796
-1.287366 -1.608606 14.609541 -0.018633 -0.588080 -0.133034
-1.218984 -1.887976 14.930505 -0.004766 -0.570487 -0.137914
-1.322002 -2.016008 15.013045 -0.017841 -0.576411 -0.144289
-1.282743 -2.134519 14.841260 -0.024762 -0.581375 -0.149891
-1.251248 -2.098197 14.697326 -0.022642 -0.575426 -0.144682
-1.081267 -2.127465 14.578013 0.022293 -0.596337 -0.145699
-1.092050 -1.991985 14.445550 0.050865 -0.622111 -0.140937
-0.987127 -1.826155 14.170543 0.054877 -0.621787 -0.135344
-1.011303 -1.790957 14.101997 0.062069 -0.621335 -0.129390
-0.982754 -1.740265 14.054472 0.064669 -0.612339 -0.125460
-0.990748 -1.638009 14.044632 0.063925 -0.610762 -0.124101
-0.973864 -1.527424 14.146278 0.066493 -0.603459 -0.120977
-0.990011 -1.472464 14.109998 0.064074 -0.612674 -0.120808
-1.026546 -1.298351 14.303886 0.033755 -0.615987 -0.120692
-1.051964 -1.400282 14.677121 0.022488 -0.619517 -0.121116
-1.026489 -1.420993 15.081074 -0.001853 -0.616966 -0.117965
-0.972643 -1.294101 15.495642 -0.028933 -0.618756 -0.113241
-0.950610 -1.135831 15.913686 -0.047050 -0.630618 -0.109338
-0.939243 -0.956511 16.462544 -0.068338 -0.637592 -0.107015
-1.005647 -0.943834 16.946613 -0.078788 -0.646668 -0.110549
-1.138572 -0.958887 17.539873 -0.101956 -0.649693 -0.115405
-1.291247 -0.967955 18.133929 -0.120402 -0.654901 -0.120871
-1.359038 -0.884424 18.519605 -0.138066 -0.639417 -0.118970
-1.381093 -0.783301 18.827540 -0.145913 -0.632653 -0.119400
-1.438560 -0.645806 19.070748 -0.159861 -0.636752 -0.123230
-1.392802 -0.679547 19.295866 -0.161737 -0.630511 -0.125450
-1.331486 -0.755320 19.503377 -0.164760 -0.626333 -0.126976
-1.285200 -0.765480 19.547773 -0.174409 -0.627433 -0.127071
-1.245136 -0.769532 19.533864 -0.174285 -0.640066 -0.128253
-1.226621 -0.819563 19.617880 -0.163421 -0.651762 -0.128585
-1.169273 -0.831659 19.710181 -0.157259 -0.653190 -0.128196
-1.186274 -0.767483 19.775161 -0.162711 -0.658215 -0.128468
-1.209895 -0.784896 19.995551 -0.156568 -0.657280 -0.128052
-1.208529 -0.771542 20.266093 -0.161773 -0.645775 -0.126458
-1.240762 -0.809915 20.552543 -0.171002 -0.638327 -0.125769
-1.275468 -0.855287 21.011403 -0.184042 -0.633650 -0.125670
-1.236920 -0.938925 21.668023 -0.192125 -0.626226 -0.124679
-1.126800 -0.883337 22.337965 -0.213932 -0.610064 -0.122065
-1.078954 -0.886521 22.991227 -0.226003 -0.607400 -0.120977
-1.076409 -0.719218 23.689378 -0.259608 -0.607388 -0.121440
-1.115182 -0.793936 24.596011 -0.268032 -0.605257 -0.122886
-1.162317 -0.951079 25.484454 -0.286284 -0.587619 -0.121511
-1.270818 -0.896000 26.110499 -0.336358 -0.603123 -0.127005
-1.229030 -1.090057 26.646347 -0.317595 -0.598691 -0.125955
-1.102832 -1.357400 27.141368 -0.279145 -0.600441 -0.129593
-1.154404 -1.371113 26.948118 -0.282031 -0.630482 -0.135112
-1.105294 -1.567239 26.841223 -0.270651 -0.641625 -0.138710
-1.061743 -1.879622 26.632870 -0.252915 -0.657102 -0.144036
-1.042219 -1.915243 26.316601 -0.257761 -0.669095 -0.147851
-0.997513 -1.792077 25.821496 -0.245209 -0.695110 -0.152146
-1.029177 -1.403501 25.185568 -0.231929 -0.740011 -0.159489
-1.133443 -1.296179 24.646803 -0.214178 -0.751509 -0.163591
-1.281472 -1.222808 24.078669 -0.223775 -0.756060 -0.168901
-1.378020 -1.152384 23.324032 -0.234177 -0.743965 -0.170713
-1.432365 -1.070038 22.555979 -0.225323 -0.746027 -0.174353
-1.526982 -0.799524 21.949219 -0.234360 -0.759815 -0.176887
-1.497226 -0.614914 21.305674 -0.235431 -0.769565 -0.177596
-1.412896 -0.580420 20.924022 -0.222209 -0.781807 -0.177478
-1.336067 -0.376268 20.569037 -0.237516 -0.791879 -0.177563
-1.373636 -0.215804 20.223220 -0.250988 -0.810118 -0.177784
-1.430139 -0.145811 19.993456 -0.252750 -0.818635 -0.176372
-1.447412 -0.090158 19.794254 -0.253791 -0.812191 -0.173968
-1.421560 -0.081404 19.515771 -0.246959 -0.784067 -0.169629
-1.408102 -0.069689 19.200384 -0.241972 -0.768596 -0.167034
-1.355265 -0.068794 18.944453 -0.232189 -0.756004 -0.160857
-1.304319 -0.038468 18.738726 -0.224129 -0.756691 -0.156370
-1.229501 0.011694 18.470763 -0.219913 -0.753846 -0.150740
-1.229371 0.033535 18.326746 -0.211915 -0.759945 -0.147702
-1.246290 0.005889 18.228250 -0.203024 -0.760670 -0.145306
-1.326377 -0.014633 18.134615 -0.196835 -0.775089 -0.145539
-1.385019 -0.004249 17.997742 -0.194193 -0.793970 -0.148014
-1.366148 -0.049359 17.958043 -0.185387 -0.795806 -0.150063
-1.337264 -0.081585 17.874356 -0.180858 -0.790255 -0.152571
-1.314539 -0.079392 17.735557 -0.181069 -0.790495 -0.155924
-1.269277 -0.076329 17.622555 -0.178184 -0.780807 -0.154924
-1.249627 -0.080642 17.458768 -0.172272 -0.782459 -0.154021
-1.274935 -0.101205 17.287807 -0.165964 -0.785108 -0.151851
-1.335241 -0.164781 17.054944 -0.158106 -0.787087 -0.151392
-1.352696 -0.211133 16.827181 -0.154177 -0.779723 -0.150457
-1.400503 -0.271354 16.474966 -0.145585 -0.786669 -0.151211
-1.387450 -0.317968 16.181181 -0.130702 -0.792587 -0.152000
-1.360519 -0.364502 15.817275 -0.117601 -0.791440 -0.149481
-1.328618 -0.366233 15.365361 -0.113029 -0.786954 -0.146666
-1.312544 -0.394045 14.964818 -0.099474 -0.783036 -0.145091
-1.283377 -0.400757 14.513290 -0.088135 -0.773692 -0.142807
-1.328470 -0.365036 13.921419 -0.086024 -0.778523 -0.143428
-1.339199 -0.394630 13.443993 -0.071781 -0.782848 -0.143501
-1.344413 -0.466029 12.996171 -0.045627 -0.793174 -0.143772
-1.313793 -0.450821 12.345666 -0.030525 -0.794278 -0.142336
-1.346576 -0.526252 11.617848 0.000258 -0.802091 -0.143764
-1.328569 -0.427932 10.788333 0.000654 -0.797343 -0.141499
-1.369778 -0.444765 10.292021 0.018994 -0.808667 -0.143551
-1.325706 -0.472501 9.840981 0.034990 -0.793807 -0.139528
-1.309145 -0.329806 9.246258 0.027168 -0.791567 -0.138364
-1.302418 -0.147699 8.736634 0.021526 -0.793255 -0.137901
-1.278830 -0.147905 8.442412 0.043079 -0.793248 -0.137008
-1.222956 -0.223270 8.476435 0.071071 -0.782192 -0.134560
-1.263999 -0.099396 8.406536 0.061837 -0.795453 -0.134147
-1.307326 -0.059929 8.620717 0.075466 -0.801080 -0.131919
-1.300792 0.121941 9.118471 0.079029 -0.785589 -0.127130
-1.263337 0.240232 9.769121 0.059443 -0.766323 -0.123505
-1.322615 0.158810 10.736208 0.022189 -0.726272 -0.114891
-1.276507 0.096088 11.869768 -0.049774 -0.686816 -0.109977
-1.170557 -0.006014 13.431663 -0.078347 -0.662198 -0.097592
-0.868656 0.080522 14.816609 -0.069921 -0.649527 -0.084997
-0.798621 0.378364 15.918096 -0.105910 -0.650580 -0.076242
-0.926313 0.045522 17.134511 -0.102130 -0.642488 -0.080058
-1.066234 -0.477663 18.532951 -0.098384 -0.578781 -0.076088
-1.132590 -0.744795 19.006077 -0.099250 -0.551173 -0.079874
-1.330340 -0.754018 19.444192 -0.113223 -0.558119 -0.088223
-1.270220 -0.948424 19.998443 -0.103511 -0.522841 -0.089696
-1.368721 -1.208044 20.609484 -0.091722 -0.518006 -0.095674
-1.345864 -1.301370 20.674663 -0.118939 -0.511257 -0.099471
-1.098778 -1.454132 20.993327 -0.132949 -0.503140 -0.104298
-0.963292 -1.764943 21.489054 -0.101597 -0.521913 -0.108815
-0.946513 -1.753301 21.643745 -0.090633 -0.554396 -0.111297
-0.965882 -1.759301 21.914810 -0.076444 -0.561599 -0.107866
-1.019592 -1.961013 22.685488 -0.064801 -0.559836 -0.107022
-0.992001 -1.960563 23.155488 -0.082034 -0.534855 -0.105615
-0.997772 -1.751544 23.390214 -0.115018 -0.538107 -0.110051
-1.029719 -1.674151 23.934771 -0.115548 -0.553449 -0.113572
-0.980079 -1.655463 24.442696 -0.131363 -0.549029 -0.112619
-0.961350 -1.574111 24.774760 -0.191575 -0.542712 -0.112563
-0.872166 -1.710489 25.501603 -0.223403 -0.527994 -0.112352
-0.921440 -1.728415 26.274762 -0.243174 -0.538940 -0.116695
-1.058864 -1.640109 26.995369 -0.271134 -0.572292 -0.126333
-1.168983 -1.606793 27.694742 -0.304153 -0.594445 -0.132818
-1.240617 -1.809387 28.755624 -0.305100 -0.619380 -0.140474
-1.208169 -1.716954 29.437049 -0.330555 -0.624795 -0.142313
-1.309910 -1.495517 29.944223 -0.366321 -0.650450 -0.146776
-1.382852 -1.554255 30.547609 -0.375699 -0.660648 -0.151183
-1.383291 -1.562121 30.872863 -0.398369 -0.652397 -0.152294
-1.253646 -1.549436 30.959862 -0.405476 -0.640669 -0.153405
-1.244473 -1.574676 30.986126 -0.396137 -0.649679 -0.154968
-1.234154 -1.585380 30.904417 -0.381561 -0.675009 -0.158189
-1.118550 -1.468351 30.647316 -0.375687 -0.714016 -0.161104
-1.029949 -1.438861 30.508531 -0.367375 -0.730281 -0.161430
-1.036702 -1.388790 30.212940 -0.354109 -0.772581 -0.167493
-1.159165 -1.226428 29.666761 -0.360765 -0.801782 -0.171425
-1.207379 -1.108895 29.092569 -0.362079 -0.810780 -0.175020
-1.180564 -1.167603 28.811538 -0.337172 -0.807713 -0.176728
-1.129058 -1.006614 28.171632 -0.345120 -0.798231 -0.175587
-1.137370 -0.781912 27.397686 -0.369973 -0.798976 -0.177043
-1.243642 -0.734424 26.823884 -0.370131 -0.818130 -0.183996
-1.269511 -0.719808 26.241908 -0.364029 -0.819813 -0.188198
-1.373935 -0.550930 25.542105 -0.359346 -0.849772 -0.195437
-1.450151 -0.307130 24.722323 -0.343324 -0.869512 -0.195800
-1.469605 -0.101035 23.964821 -0.321015 -0.883725 -0.197029
-1.643081 0.107413 23.192400 -0.323886 -0.906945 -0.197790
-1.526318 0.192768 22.505198 -0.312397 -0.875609 -0.192142
-1.451743 0.252564 21.907340 -0.294427 -0.854883 -0.187693
-1.430955 0.462839 21.127021 -0.295521 -0.834967 -0.179586
-1.366558 0.585092 20.582221 -0.283705 -0.827453 -0.173380
-1.320129 0.635238 20.186488 -0.264742 -0.834357 -0.170566
-1.314760 0.657801 19.732132 -0.249276 -0.854807 -0.170354
-1.320119 0.614231 19.347079 -0.230509 -0.879575 -0.171341
-1.321224 0.627224 19.031616 -0.212793 -0.910959 -0.173005
-1.279620 0.664148 18.389237 -0.197762 -0.940295 -0.173150
-1.318891 0.608636 17.839223 -0.176646 -0.943872 -0.171526
-1.395500 0.602315 17.081613 -0.175024 -0.930039 -0.170265
-1.437029 0.498929 16.285597 -0.153984 -0.915215 -0.168091
-1.422027 0.340471 15.471681 -0.123874 -0.901952 -0.165734
-1.488633 0.338324 14.461924 -0.111553 -0.910827 -0.167314
-1.536289 0.197741 13.675186 -0.072587 -0.921551 -0.167869
-1.569939 0.049110 13.005058 -0.035065 -0.929649 -0.167597
-1.602149 0.069094 12.221811 -0.029036 -0.929842 -0.165742
-1.650869 -0.038487 11.630321 -0.009867 -0.927964 -0.163859
-1.631427 -0.178060 11.304200 0.017850 -0.905780 -0.159386
-1.657940 -0.123263 10.930808 0.019730 -0.899099 -0.155795
-1.549752 -0.050196 10.714801 0.014419 -0.855331 -0.143274
-1.457476 -0.095274 10.599138 0.014804 -0.811617 -0.131654
-1.413854 -0.186802 10.996368 0.015890 -0.768114 -0.121134
-1.267537 -0.024058 11.125627 -0.008245 -0.717689 -0.108718
-1.308108 0.005436 11.699378 0.011000 -0.724952 -0.107765
-1.110315 -0.183942 12.650491 0.056078 -0.686668 -0.099387
-1.219248 -0.002607 13.102922 0.004726 -0.694735 -0.097929
-1.117131 -0.227720 14.055727 -0.030717 -0.660799 -0.090427
-0.979715 -0.736912 15.504787 -0.013459 -0.638155 -0.080768
-0.858147 -0.514560 16.169182 -0.054719 -0.641966 -0.073462
-0.805586 -0.313465 16.683207 -0.077005 -0.647090 -0.067709
-0.824021 -0.533967 17.536035 -0.055844 -0.633273 -0.065271
-0.903450 -0.625654 18.076994 -0.075266 -0.610582 -0.068374
-0.983494 -0.725907 18.211170 -0.094546 -0.588045 -0.071874
-1.099496 -1.036833 18.561236 -0.069343 -0.599266 -0.079049
-1.118538 -1.153634 18.650708 -0.071979 -0.603328 -0.082962
-1.098501 -1.217673 18.758431 -0.073539 -0.618871 -0.087458
-1.029750 -1.335748 18.981004 -0.061896 -0.620046 -0.090078
-1.051874 -1.352267 19.132946 -0.062961 -0.626450 -0.094200
-1.024868 -1.273439 19.186405 -0.078386 -0.614234 -0.095559
-1.104960 -1.200042 19.385159 -0.089422 -0.625713 -0.100579
-1.172915 -1.191227 19.629874 -0.088352 -0.638981 -0.105204
-1.103439 -1.128290 19.845312 -0.092078 -0.624453 -0.105080
-1.093479 -1.067850 20.175888 -0.091134 -0.622510 -0.106625
-1.099040 -1.068164 20.636345 -0.077361 -0.618920 -0.105388
-1.051244 -1.083014 21.274379 -0.073642 -0.596466 -0.100016
-1.082920 -1.197404 22.111492 -0.086104 -0.582585 -0.097301
-1.096522 -1.095270 22.694167 -0.167330 -0.546942 -0.090225
-1.164581 -1.260819 23.741456 -0.212196 -0.548914 -0.093264
-1.123946 -1.428392 25.590635 -0.220856 -0.538817 -0.092542
-1.007528 -1.174849 26.915018 -0.265757 -0.523514 -0.090217
-1.121838 -0.930040 28.231823 -0.334199 -0.542265 -0.095042
-1.250578 -1.066258 29.771782 -0.371730 -0.531899 -0.096317
-1.222632 -1.224584 30.948528 -0.412542 -0.490578 -0.092745
-1.262658 -1.293158 32.028635 -0.429325 -0.488375 -0.096815
-1.309208 -1.658635 33.538109 -0.381554 -0.498786 -0.101886
-1.047410 -1.854546 34.142955 -0.365585 -0.465947 -0.100435
-1.058624 -1.807977 34.314518 -0.394128 -0.504265 -0.111297
-1.056138 -2.106260 34.597594 -0.394710 -0.547426 -0.119741
-0.885546 -2.702168 34.747197 -0.367355 -0.578187 -0.127519
-0.801007 -3.027570 34.580589 -0.368859 -0.625837 -0.141528
-0.917959 -2.846726 34.069041 -0.387272 -0.679827 -0.150207
-0.802692 -2.565859 33.372777 -0.356606 -0.713095 -0.159138
-0.959010 -2.446594 32.915825 -0.287625 -0.771063 -0.173306
-1.047952 -2.403258 32.108939 -0.277235 -0.781431 -0.180591
-1.381566 -2.232866 31.048354 -0.322800 -0.820190 -0.189357
-1.296428 -2.438617 30.390613 -0.301130 -0.815349 -0.190273
-1.177570 -2.605734 30.042017 -0.252798 -0.800861 -0.184733
-1.084658 -2.231578 28.964613 -0.269198 -0.802674 -0.185777
-1.340998 -1.598067 27.775009 -0.325684 -0.839354 -0.189997
-1.353403 -1.485103 27.120386 -0.301651 -0.847665 -0.194367
-1.426009 -1.323518 26.565291 -0.271075 -0.858896 -0.196916
-1.474821 -0.611804 25.313486 -0.323984 -0.863677 -0.197143
-1.659216 0.005418 24.400156 -0.355049 -0.900036 -0.201734
-1.574846 0.065398 24.109162 -0.299660 -0.898838 -0.201734
-1.388910 -0.025357 23.866529 -0.248434 -0.879153 -0.197131
-1.550326 0.272965 23.218440 -0.290530 -0.925613 -0.202409
-1.577134 0.514881 22.417629 -0.340260 -0.929872 -0.196934
-1.420935 0.317129 22.263880 -0.301408 -0.915747 -0.190937
-1.410372 0.340755 21.958221 -0.267038 -0.920830 -0.186155
-1.434684 0.596702 21.314051 -0.285691 -0.919066 -0.181327
-1.414695 1.005924 20.387177 -0.319722 -0.909924 -0.175209
-1.454680 1.017317 19.809255 -0.297389 -0.923146 -0.173379
-1.416450 1.040203 19.107910 -0.284881 -0.927383 -0.169694
-1.384749 1.044536 18.486536 -0.280315 -0.943460 -0.171087
-1.360393 0.859724 17.958664 -0.240595 -0.964104 -0.172248
-1.210317 0.865660 17.254603 -0.206115 -0.960760 -0.168324
-1.246315 0.877706 16.670095 -0.161698 -0.984477 -0.170175
-1.327280 0.940404 16.105718 -0.126450 -0.979231 -0.167456
-1.465964 0.764009 15.639665 -0.081529 -0.963708 -0.165254
-1.731733 0.720499 15.026421 -0.073328 -0.949029 -0.163144
-1.730347 0.850438 14.399427 -0.090159 -0.913152 -0.157192
-1.713329 0.883351 13.895550 -0.080537 -0.907573 -0.154658
-1.636547 0.880565 13.569908 -0.056701 -0.909038 -0.150861
-1.531492 0.902169 13.279069 -0.039308 -0.907681 -0.146727
-1.481044 1.027977 12.909054 -0.050664 -0.908171 -0.143688
-1.431223 0.896745 12.867311 -0.032034 -0.897285 -0.140505
-1.397386 0.599218 13.102978 0.004455 -0.865792 -0.133717
-1.435310 0.510423 13.189516 0.007291 -0.838736 -0.128455
-1.634882 0.471393 13.387754 -0.000074 -0.832289 -0.127109
-1.639698 0.421116 13.565524 -0.005955 -0.797866 -0.119652
-1.693185 0.303628 14.001044 0.008774 -0.798586 -0.118958
-1.366924 0.277830 14.424047 0.011340 -0.743612 -0.104360
-1.235167 0.294800 14.493574 0.008584 -0.726539 -0.100390
-1.168354 0.288397 14.687480 0.006696 -0.724927 -0.093358
-0.973213 0.138199 14.986094 0.020926 -0.688091 -0.082028
-0.965997 -0.132245 15.358075 0.045322 -0.674183 -0.077063
-1.023069 -0.367561 15.666185 0.057810 -0.668400 -0.074435
-1.061963 -0.561533 15.987237 0.062722 -0.653985 -0.070759
-1.028928 -0.801318 16.368680 0.073369 -0.641693 -0.069453
-1.135160 -0.977862 16.859021 0.085181 -0.660124 -0.071690
-1.105928 -1.064059 17.263023 0.078908 -0.660176 -0.070806
-1.077802 -1.126799 17.762590 0.069061 -0.667145 -0.071791
-1.044837 -1.068549 18.068675 0.043941 -0.671055 -0.072321
-1.006063 -1.184733 18.541262 0.039212 -0.672391 -0.073678
-0.940237 -1.267994 18.967589 0.028489 -0.660785 -0.074125
-0.992142 -1.368609 19.275960 0.023251 -0.664399 -0.077006
-1.076040 -1.487508 19.554493 0.020694 -0.668201 -0.080189
-1.135574 -1.621406 19.827775 0.020570 -0.663374 -0.083294
-1.147740 -1.715609 20.059992 0.020047 -0.657643 -0.086610
-1.193544 -1.746113 20.280216 0.017300 -0.662365 -0.090865
-1.212335 -1.758439 20.491550 0.014725 -0.663691 -0.094186
-1.227986 -1.692966 20.691491 0.004124 -0.669337 -0.097609
-1.271821 -1.667018 20.777244 -0.002265 -0.671856 -0.098479
-1.280143 -1.613343 20.886001 -0.013259 -0.666614 -0.099558
-1.293497 -1.584483 21.055858 -0.022642 -0.657634 -0.099285
-1.207998 -1.578422 21.362814 -0.029264 -0.642053 -0.097149
-1.178917 -1.516420 21.594897 -0.041911 -0.634764 -0.094995
-1.104859 -1.477104 21.910015 -0.057869 -0.620536 -0.091767
-1.087633 -1.351887 22.294367 -0.085622 -0.608707 -0.088902
-1.066518 -1.160952 22.981473 -0.116911 -0.595444 -0.086081
-1.025715 -1.023964 23.788632 -0.139381 -0.579038 -0.083516
-1.018102 -0.891505 24.485328 -0.173466 -0.568998 -0.083409
-1.033076 -0.832418 25.222222 -0.216907 -0.565606 -0.085281
-1.043077 -0.824652 26.277879 -0.245023 -0.562883 -0.086505
-1.013112 -0.828629 27.197867 -0.249756 -0.567466 -0.087872
-1.037231 -0.767564 28.070907 -0.259079 -0.569019 -0.087976
-1.046336 -0.787880 28.993488 -0.281534 -0.551972 -0.087773
-1.106134 -0.909965 29.776527 -0.309723 -0.541164 -0.089869
-1.097023 -0.873783 30.514760 -0.353199 -0.519522 -0.090672
-1.154518 -0.963325 31.389114 -0.365678 -0.520915 -0.095362
-1.204436 -1.203254 32.431156 -0.352936 -0.519290 -0.098968
-1.189132 -1.222078 33.146893 -0.381295 -0.509407 -0.100772
-1.197205 -1.103558 33.587751 -0.426774 -0.519718 -0.104984
-1.167115 -1.439089 34.415902 -0.394472 -0.538431 -0.111587
-1.005635 -1.934553 35.195937 -0.340084 -0.523274 -0.112971
-1.035231 -2.140273 35.320871 -0.343774 -0.550986 -0.122327
-1.201441 -2.318060 35.322647 -0.371712 -0.610171 -0.135694
-1.003370 -2.809922 35.488540 -0.344272 -0.614829 -0.141450
-0.984489 -2.609116 35.157125 -0.358890 -0.651403 -0.149852
-0.944855 -2.238907 34.556840 -0.347370 -0.692103 -0.158030
-0.913705 -1.966416 33.827293 -0.331937 -0.705209 -0.161143
-0.984107 -1.819314 33.286470 -0.332580 -0.732595 -0.170426
-1.123226 -2.026919 32.746113 -0.310142 -0.767567 -0.177141
-1.011723 -2.083877 32.194735 -0.298769 -0.771387 -0.178289
-1.029824 -1.873044 31.281812 -0.296616 -0.812347 -0.184283
-1.063809 -1.762591 30.316669 -0.272686 -0.843562 -0.188807
-1.219875 -1.526777 29.516233 -0.274686 -0.866719 -0.196558
-1.401654 -1.228360 28.274089 -0.287360 -0.894345 -0.207895
-1.390932 -0.830287 27.157901 -0.299326 -0.879202 -0.210218
-1.570045 -0.573406 26.297729 -0.295590 -0.900340 -0.212718
-1.560452 0.093254 24.934634 -0.343142 -0.880638 -0.204492
-1.664077 0.390177 24.056675 -0.326628 -0.899965 -0.206502
-1.568463 0.298569 23.642901 -0.272050 -0.873254 -0.199605
-1.522589 0.491343 22.769046 -0.273796 -0.880208 -0.198400
-1.581844 0.664009 21.916839 -0.275747 -0.910475 -0.196860
-1.538804 0.594745 21.195833 -0.231834 -0.930641 -0.194303
-1.501686 0.629634 20.457297 -0.206938 -0.949443 -0.190422
-1.452835 0.943256 19.264434 -0.221813 -0.970525 -0.186345
-1.367386 1.128064 18.267350 -0.193845 -0.985719 -0.182996
-1.364352 1.169719 17.387218 -0.133950 -1.011879 -0.181795
-1.258131 1.065869 16.516552 -0.092705 -0.986634 -0.174525
-1.330701 0.929052 15.293600 -0.080210 -0.975987 -0.168983
-1.420834 0.709323 14.743324 -0.047559 -0.967343 -0.165175
-1.409147 0.481765 14.187258 0.012865 -0.948085 -0.160464
-1.645837 0.759597 13.054517 0.005676 -0.979151 -0.161473
-1.644175 0.897824 12.199845 0.005664 -0.967620 -0.158085
-1.725836 0.676737 11.678901 0.040760 -0.957926 -0.152788
-1.724860 0.719542 10.983285 0.036415 -0.940243 -0.144496
-1.616392 0.695443 10.357257 0.054780 -0.912490 -0.132277
-1.446536 0.445236 10.194651 0.110531 -0.876426 -0.122406
-1.341221 0.407267 9.753848 0.122112 -0.835848 -0.115704
-1.373461 0.368071 9.426483 0.115155 -0.795150 -0.108633
-1.460070 0.112703 9.393087 0.137225 -0.768740 -0.102407
-1.476026 0.117990 9.255154 0.133032 -0.756734 -0.095070
-1.410596 0.349350 8.983028 0.107279 -0.751999 -0.088507
-1.331773 0.252275 9.087695 0.126022 -0.756456 -0.087801
-1.274752 0.092773 9.311356 0.143546 -0.739118 -0.086455
-1.293292 0.035212 9.291997 0.136155 -0.734265 -0.088050
-1.174313 -0.152029 9.508512 0.151214 -0.696191 -0.080195
-1.159189 -0.399507 9.949720 0.181241 -0.686940 -0.075024
-1.016691 -0.311659 10.005520 0.160060 -0.648403 -0.061482
-1.151552 -0.253208 10.286505 0.143512 -0.681165 -0.060099
-1.049684 -0.341317 10.747188 0.147442 -0.666103 -0.050762
-0.989032 -0.290220 11.112948 0.137251 -0.667208 -0.047154
-1.070873 -0.251188 11.529326 0.135465 -0.689441 -0.047152
-0.964499 -0.391167 12.265509 0.162317 -0.675016 -0.044871
-0.933900 -0.661222 13.148548 0.181749 -0.669971 -0.045638
-0.979815 -0.656219 13.775276 0.126046 -0.647946 -0.043400
-1.047446 -0.946978 14.729431 0.095488 -0.638013 -0.046538
-1.037023 -1.175981 16.080092 0.083468 -0.607824 -0.044394
-1.023076 -0.978541 16.984129 0.046075 -0.609923 -0.045307
-1.048492 -0.855124 17.952389 0.017358 -0.621339 -0.046584
-1.043248 -1.101161 19.312753 0.008152 -0.616338 -0.051281
-1.076936 -1.302868 20.530679 -0.027713 -0.611640 -0.059214
-1.117107 -1.516073 21.644143 -0.041150 -0.592193 -0.063798
-1.157024 -1.414439 22.473816 -0.078403 -0.569642 -0.073180
-1.357207 -1.569534 23.498466 -0.084356 -0.552423 -0.083040
-1.309926 -1.839554 24.498923 -0.090956 -0.497482 -0.083503
-1.454233 -1.853862 25.094447 -0.142078 -0.490891 -0.084640
-1.366328 -1.916329 25.687618 -0.163149 -0.482337 -0.078064
-1.168594 -2.235759 26.710039 -0.139725 -0.486972 -0.075680
-1.185349 -2.184259 27.300187 -0.177112 -0.506726 -0.078410
-1.076566 -2.108374 27.775524 -0.220382 -0.507867 -0.085572
-1.076868 -2.326105 28.751944 -0.214412 -0.524523 -0.094068
-0.959046 -2.413276 29.455649 -0.227783 -0.523841 -0.095770
-0.935189 -2.317089 30.031941 -0.259481 -0.548243 -0.098765
-0.837511 -2.300499 30.574621 -0.275016 -0.544876 -0.097735
-0.831299 -2.424329 31.200999 -0.273469 -0.548318 -0.107801
-0.975079 -2.445176 31.764846 -0.294988 -0.572104 -0.121434
-0.871641 -2.371266 31.969337 -0.313523 -0.574635 -0.124090
-0.806298 -2.320935 32.244592 -0.311549 -0.606917 -0.128982
-0.817104 -2.122614 32.309909 -0.324245 -0.641479 -0.133972
-0.952771 -1.854428 32.137973 -0.354203 -0.672424 -0.139251
-1.015226 -1.728782 32.015514 -0.365494 -0.680379 -0.145311
-1.173702 -1.681941 32.026407 -0.357236 -0.718781 -0.161436
-1.126508 -1.446531 31.715311 -0.372465 -0.736198 -0.174901
-1.196869 -1.256592 31.546901 -0.378529 -0.783022 -0.190318
-1.144666 -1.235146 31.493498 -0.368489 -0.789219 -0.195944
-1.249422 -1.062249 31.214769 -0.386291 -0.816065 -0.204971
-1.244645 -0.773731 30.754850 -0.418691 -0.804742 -0.204137
-1.300990 -0.673159 30.486960 -0.416314 -0.825282 -0.207131
-1.381686 -0.450593 29.950877 -0.432619 -0.848124 -0.207448
-1.331872 -0.235184 29.343077 -0.447811 -0.843688 -0.204456
-1.386550 -0.191954 28.882654 -0.434216 -0.846758 -0.201944
-1.373185 -0.128877 28.608334 -0.432002 -0.841783 -0.200978
-1.442153 -0.042262 28.328260 -0.423923 -0.851426 -0.202289
-1.440855 0.009817 28.070798 -0.412446 -0.847688 -0.200637
-1.487020 0.118336 27.744366 -0.413362 -0.855869 -0.200137
-1.488003 0.163720 27.400830 -0.416427 -0.853384 -0.197534
-1.465225 0.085311 27.092247 -0.398549 -0.847433 -0.194980
-1.440556 0.087084 26.704505 -0.391058 -0.838465 -0.191384
-1.427374 0.103010 26.292577 -0.387954 -0.831073 -0.187245
-1.432109 0.009238 25.915504 -0.373307 -0.833353 -0.183854
-1.389077 -0.056345 25.392225 -0.370791 -0.821659 -0.178863
-1.372615 -0.104232 24.722710 -0.368275 -0.811193 -0.176559
-1.358496 -0.194364 24.269513 -0.331921 -0.805053 -0.174358
-1.317168 -0.071725 23.520643 -0.284371 -0.811740 -0.172105
-1.282942 0.150097 22.554582 -0.248405 -0.830179 -0.170283
-1.314034 0.151516 21.661705 -0.221712 -0.846943 -0.171192
-1.373297 0.089135 20.753225 -0.214642 -0.862303 -0.171594
-1.354852 0.143130 19.790524 -0.200233 -0.889487 -0.170218
-1.270602 0.281034 18.882555 -0.171630 -0.929910 -0.170287
-1.193676 0.458862 17.939765 -0.157612 -0.948910 -0.167335
-1.260473 0.443996 17.385012 -0.140996 -0.972910 -0.168627
-1.265203 0.349731 16.975199 -0.121350 -0.931351 -0.156996
-1.414248 0.322424 16.738807 -0.106171 -0.924716 -0.155994
-1.527158 0.328604 16.548378 -0.095426 -0.912407 -0.150958
-1.530556 0.344802 16.508079 -0.095852 -0.885471 -0.144515
-1.639286 0.363976 16.475274 -0.102570 -0.890719 -0.143361
-1.571077 0.417659 16.534321 -0.112328 -0.868306 -0.135942
-1.453461 0.331082 16.323413 -0.104020 -0.844689 -0.126581
-1.402149 0.233399 16.158789 -0.102156 -0.809379 -0.117132
-1.448825 0.150931 15.719722 -0.091785 -0.795303 -0.111893
-1.350380 0.010667 15.209108 -0.055960 -0.766053 -0.105544
-1.337099 -0.179631 14.383302 -0.022906 -0.753239 -0.102117
-1.356977 -0.359404 13.369489 0.006551 -0.751213 -0.102974
-1.333884 -0.569692 12.597206 0.045338 -0.757258 -0.102765
-1.290850 -0.571408 11.534958 0.065934 -0.768138 -0.100735
-1.259640 -0.478254 10.433854 0.081659 -0.791708 -0.101360
-1.155035 -0.538499 9.608123 0.116884 -0.797586 -0.100564
-1.119850 -0.432814 8.789576 0.128598 -0.813220 -0.103334
-1.106999 -0.529398 8.095758 0.161344 -0.822739 -0.105415
-1.147537 -0.382378 7.244231 0.150771 -0.817390 -0.105205
-1.341713 -0.428921 6.899301 0.175207 -0.826991 -0.108637
-1.337677 -0.438609 6.333556 0.187537 -0.788291 -0.103237
-1.498004 -0.138314 5.684191 0.164176 -0.794766 -0.108098
-1.497351 -0.162779 5.405029 0.188360 -0.781283 -0.108611
-1.388706 -0.143238 5.223912 0.205565 -0.775331 -0.110067
-1.427537 0.140180 4.690922 0.182687 -0.797782 -0.110951
-1.331336 0.097130 4.600507 0.203719 -0.786021 -0.108910
-1.379145 0.012969 4.641393 0.225020 -0.779264 -0.110622
-1.429496 0.212761 4.278201 0.197599 -0.758962 -0.110185
-1.506931 0.208787 4.186073 0.200430 -0.754254 -0.111562
-1.412755 0.110382 4.232863 0.218249 -0.725969 -0.106357
-1.402019 0.198821 4.059320 0.213889 -0.734993 -0.104460
-1.295594 0.280946 3.866073 0.209464 -0.728259 -0.098525
-1.139105 0.179124 3.859683 0.229419 -0.715029 -0.094903
-1.209719 0.136204 3.835726 0.237792 -0.728984 -0.096496
-1.182696 0.209405 3.589033 0.227955 -0.723977 -0.096203
-1.210363 0.115615 3.557514 0.245519 -0.731406 -0.098601
-1.285379 0.042780 3.534427 0.259381 -0.739154 -0.100024
-1.263296 0.080394 3.290137 0.255504 -0.731306 -0.099299
-1.311506 -0.054676 3.260919 0.274413 -0.735128 -0.100495
-1.215347 -0.101576 3.173732 0.277988 -0.710329 -0.096927
-1.236854 -0.143631 3.038410 0.281347 -0.716820 -0.097649
-1.225115 -0.189253 2.944470 0.290020 -0.713308 -0.095916
-1.223904 -0.208359 2.798077 0.291078 -0.721735 -0.097418
-1.238600 -0.215012 2.683589 0.287562 -0.724331 -0.099546
-1.278815 -0.285081 2.588011 0.289292 -0.727677 -0.101379
-1.346569 -0.361982 2.544855 0.296107 -0.732300 -0.101957
-1.338250 -0.394289 2.422894 0.301108 -0.730258 -0.099434
-1.272415 -0.444051 2.312555 0.312965 -0.719991 -0.094715
-1.235912 -0.484743 2.216536 0.315754 -0.710045 -0.092840
-1.235010 -0.512855 2.155729 0.306017 -0.691004 -0.091778
-1.304112 -0.636167 2.133362 0.306443 -0.692341 -0.094431
-1.294237 -0.691110 2.125742 0.304733 -0.686318 -0.094098
-1.257884 -0.666619 2.072576 0.300659 -0.690215 -0.093914
-1.229783 -0.648437 2.090006 0.304072 -0.699670 -0.093682
-1.241679 -0.628582 2.067642 0.303277 -0.710426 -0.094624
-1.256985 -0.631463 2.139471 0.298398 -0.714038 -0.096001
-1.223863 -0.665606 2.209540 0.293092 -0.699952 -0.093102
-1.229474 -0.702634 2.268840 0.290153 -0.696443 -0.091806
-1.230345 -0.686621 2.316576 0.283098 -0.692950 -0.090823
-1.224083 -0.684750 2.340386 0.281771 -0.691319 -0.090416
-1.235407 -0.648614 2.380842 0.277152 -0.698190 -0.092376
-1.213804 -0.586206 2.367957 0.267290 -0.693119 -0.092294
-1.237844 -0.550047 2.362992 0.261144 -0.700885 -0.095604
-1.287359 -0.542988 2.372013 0.260146 -0.709473 -0.097739
-1.318511 -0.522393 2.353430 0.257770 -0.715522 -0.099342
-1.304654 -0.539151 2.361310 0.261554 -0.716516 -0.099234
-1.283090 -0.546152 2.362453 0.265129 -0.715916 -0.098597
-1.279450 -0.548286 2.353894 0.267253 -0.714788 -0.098233
-1.286997 -0.537449 2.357788 0.267709 -0.713528 -0.098507
-1.301390 -0.534597 2.365294 0.268826 -0.714102 -0.098961
-1.305487 -0.510470 2.367909 0.265061 -0.711477 -0.098936
-1.305729 -0.481902 2.387594 0.259380 -0.708329 -0.098475
-1.316275 -0.465790 2.405912 0.255695 -0.710335 -0.098984
-1.326262 -0.480565 2.471814 0.257207 -0.713403 -0.100164
-1.308833 -0.495140 2.520081 0.257821 -0.709834 -0.099505
-1.285770 -0.525335 2.576314 0.260984 -0.706072 -0.098259
-1.275742 -0.563345 2.646571 0.265706 -0.705814 -0.098521
-1.280603 -0.584250 2.698481 0.266820 -0.704796 -0.098330
-1.292676 -0.596443 2.747024 0.266525 -0.705521 -0.098970
-1.294170 -0.608993 2.782565 0.266825 -0.704706 -0.099292
-1.292328 -0.583677 2.820477 0.261922 -0.702909 -0.099464
-1.286500 -0.577347 2.878751 0.260102 -0.699524 -0.098844
-1.276512 -0.578497 2.912394 0.259819 -0.699631 -0.099323
-1.284961 -0.564061 2.976744 0.256816 -0.702297 -0.100172
-1.271859 -0.568007 3.063249 0.255660 -0.700576 -0.099973
-1.256710 -0.580280 3.154519 0.254743 -0.698841 -0.099831
-1.259337 -0.564345 3.233246 0.248787 -0.698374 -0.099884
-1.252786 -0.554738 3.343840 0.242741 -0.699956 -0.100250
-1.251081 -0.522034 3.503190 0.231000 -0.702768 -0.100552
-1.227116 -0.495594 3.732022 0.221371 -0.702007 -0.100442
-1.189826 -0.495137 4.010416 0.223608 -0.697791 -0.100639
-1.127819 -0.443716 4.315050 0.223717 -0.691397 -0.100547
-1.117940 -0.504228 4.792281 0.237335 -0.696745 -0.101920
-1.055783 -0.374597 4.997774 0.203155 -0.680181 -0.099972
-1.148307 -0.372569 5.669670 0.174858 -0.685190 -0.104647
-1.137514 -0.560518 6.555139 0.157073 -0.670104 -0.104116
-1.009885 -0.612250 7.486728 0.123940 -0.638313 -0.099083
-1.022351 -0.542642 8.630349 0.087820 -0.657170 -0.098999
-0.875831 -0.393929 9.768776 0.057391 -0.651992 -0.096636
-0.886940 -0.349472 11.117057 0.042784 -0.645049 -0.097150
-0.969330 -0.294355 12.422447 0.016990 -0.622851 -0.097846
-1.158042 -0.426161 13.898126 -0.007766 -0.582431 -0.098558
-1.222886 -0.301301 14.807936 -0.088146 -0.490721 -0.089030
-1.349271 -0.430399 16.130427 -0.120921 -0.450627 -0.088548
-1.364858 -0.899622 17.829017 -0.082221 -0.416857 -0.087292
-1.225864 -0.901555 18.467693 -0.092841 -0.392535 -0.085113
-1.425700 -0.675100 19.387946 -0.162531 -0.434922 -0.095204
-1.320476 -0.699456 19.526466 -0.174633 -0.407705 -0.091547
-1.225981 -1.147975 20.197034 -0.147427 -0.395255 -0.096218
-1.195670 -1.614553 20.770400 -0.133459 -0.373777 -0.093282
-1.280953 -1.805252 21.003849 -0.150375 -0.401846 -0.096023
-1.256630 -2.188664 21.464594 -0.127015 -0.441779 -0.097466
-1.172258 -2.255871 21.891033 -0.135648 -0.461164 -0.096145
-1.044436 -2.296240 22.301533 -0.136823 -0.469605 -0.100789
-0.912160 -2.427688 22.959611 -0.119861 -0.447367 -0.102378
-0.914968 -2.208948 23.209735 -0.157780 -0.437710 -0.102614
-0.966216 -1.987932 23.473377 -0.182844 -0.453786 -0.103621
-0.876255 -1.946426 23.915270 -0.169389 -0.455114 -0.100130
-0.817906 -1.737717 24.009061 -0.186589 -0.458938 -0.101462
-0.909206 -1.624303 24.120598 -0.215838 -0.480894 -0.109513
-0.904908 -1.765271 24.605538 -0.234306 -0.476490 -0.112708
-0.985473 -1.960281 25.192905 -0.236730 -0.513654 -0.119031
-0.907866 -1.795602 25.652707 -0.261499 -0.524711 -0.118171
-0.904468 -1.616582 26.338023 -0.283788 -0.540310 -0.120946
-1.029951 -1.543649 27.211968 -0.303982 -0.543766 -0.124836
-1.122925 -1.393461 27.944639 -0.346089 -0.536140 -0.128657
-1.240329 -1.288229 28.821544 -0.381564 -0.542440 -0.135453
-1.245517 -1.193849 29.652781 -0.399364 -0.548880 -0.138850
-1.263892 -1.155095 30.390236 -0.405092 -0.565013 -0.142129
-1.296143 -1.038918 30.924585 -0.441287 -0.564383 -0.141962
-1.355653 -1.149976 31.616555 -0.454393 -0.573507 -0.145138
-1.331401 -1.280788 32.343119 -0.454331 -0.569508 -0.146653
-1.398399 -1.231916 32.913224 -0.458026 -0.589205 -0.150536
-1.420772 -1.060364 33.417276 -0.473306 -0.608395 -0.152956
-1.316011 -1.082923 34.079213 -0.479061 -0.618158 -0.153991
-1.203272 -1.310886 35.093982 -0.476480 -0.630059 -0.155798
-1.116399 -1.441440 35.980716 -0.493207 -0.627329 -0.154925
-1.183479 -1.253532 36.528725 -0.541730 -0.642087 -0.160750
-1.292970 -1.266686 37.332596 -0.563558 -0.640061 -0.164320
-1.286615 -1.422497 38.595693 -0.560194 -0.645369 -0.170439
-1.203875 -1.529751 39.588666 -0.569006 -0.661868 -0.174146
-1.129830 -1.399226 40.280046 -0.613726 -0.690115 -0.179272
-1.257122 -1.946055 41.722162 -0.567301 -0.732433 -0.190143
-1.258693 -1.926029 42.378446 -0.606401 -0.726935 -0.193522
-1.445067 -1.812463 42.760587 -0.634372 -0.784728 -0.206840
-1.157794 -2.019264 43.243741 -0.607786 -0.752676 -0.202291
-1.203864 -2.119144 43.405041 -0.589334 -0.811005 -0.214722
-1.065066 -2.080635 42.933533 -0.588762 -0.842761 -0.219685
-0.703966 -2.058687 42.367851 -0.588430 -0.827542 -0.212807
-0.378425 -2.232408 42.013638 -0.557230 -0.849229 -0.216058
-0.513374 -2.251645 41.563428 -0.554795 -0.892127 -0.220214
-0.751659 -1.887998 40.225388 -0.577107 -0.909936 -0.227108
-0.837941 -1.801427 39.661596 -0.518654 -0.908622 -0.227089
-0.941383 -1.540770 38.646182 -0.482481 -0.929784 -0.232935
-0.962024 -1.112954 37.192913 -0.509751 -0.935843 -0.241346
-1.102260 -0.998584 36.069267 -0.482802 -0.981765 -0.254285
-0.995662 -0.912837 35.062649 -0.441067 -0.966815 -0.251903
-0.867956 -0.336705 33.513035 -0.465013 -0.965165 -0.254609
-1.171222 0.096664 32.126347 -0.486537 -0.987120 -0.263687
-1.276459 0.116444 31.265790 -0.446170 -0.944295 -0.269233
-1.757299 0.387662 29.952318 -0.440771 -1.017853 -0.290689
-2.015306 0.858470 28.535671 -0.454257 -1.042362 -0.300093
-1.863582 0.639723 27.858810 -0.368782 -1.035076 -0.300482
-1.986343 0.692131 27.096308 -0.320288 -1.102987 -0.298251
-1.777749 1.139329 25.543224 -0.336981 -1.095122 -0.283269
-1.761548 1.137092 24.743903 -0.289966 -1.124690 -0.279921
-1.815366 0.868817 24.359059 -0.216099 -1.121600 -0.271692
-1.885489 1.308349 23.025546 -0.255936 -1.102798 -0.261957
-1.829399 1.672510 21.653792 -0.270462 -1.094235 -0.253949
-1.708707 1.309034 21.320758 -0.165611 -1.084131 -0.246368
-1.637817 1.164411 20.358273 -0.118303 -1.065717 -0.238949
-1.706705 1.360143 18.900227 -0.136633 -1.055860 -0.232489
-1.652565 0.962015 17.830486 -0.063441 -1.044750 -0.225301
-1.662547 0.763119 17.190592 -0.005793 -1.046680 -0.220345
-1.660964 0.923919 15.785016 -0.002306 -1.045592 -0.211808
-1.767989 1.072307 14.516027 0.009262 -1.059677 -0.208821
-1.778018 0.498599 13.776672 0.107957 -1.047257 -0.202924
-1.651492 0.596569 11.851765 0.099322 -0.989186 -0.188770
-1.747056 1.031120 9.514384 0.055121 -0.992333 -0.184786
-1.627590 0.420361 8.568835 0.186592 -0.972065 -0.174085
-1.477708 0.073974 7.121480 0.253661 -0.939249 -0.159928
-1.636333 1.032453 4.297022 0.133764 -0.956785 -0.156613
-1.724586 0.364750 3.761908 0.253536 -0.943567 -0.153936
-1.552192 -0.507264 3.411686 0.385550 -0.868806 -0.143694
-1.850304 0.569378 1.104562 0.247757 -0.904145 -0.148053
-1.936958 0.349575 0.669395 0.295189 -0.913427 -0.147912
-1.451461 -0.608996 1.447747 0.437591 -0.818411 -0.132325
-1.274863 0.435663 0.042347 0.291323 -0.784360 -0.123334
-1.562291 0.786508 -0.579843 0.233697 -0.820131 -0.122716
-1.293918 -0.042147 0.539369 0.336803 -0.756236 -0.115539
-1.108839 0.304608 0.483384 0.261627 -0.718527 -0.110471
-1.499675 1.005296 0.227406 0.154789 -0.746940 -0.110369
-1.016164 0.655363 0.896162 0.196660 -0.686342 -0.105584
-1.419323 0.803927 1.450461 0.160301 -0.721580 -0.099219
-1.635709 1.039119 1.802029 0.089575 -0.722161 -0.096216
-1.625299 0.673374 2.804362 0.097639 -0.693048 -0.093375
-1.406391 0.666507 3.383992 0.078653 -0.654553 -0.084246
-1.232313 0.847902 3.573170 0.068317 -0.712908 -0.090162
-1.078353 0.736359 4.106171 0.100965 -0.729013 -0.087369
-1.118940 0.621265 4.301694 0.119392 -0.755590 -0.091381
-0.979020 0.555130 4.280031 0.117360 -0.724699 -0.084658
-0.962787 0.436452 4.286012 0.129386 -0.701016 -0.078376
-1.213488 0.038369 4.080900 0.193756 -0.730053 -0.077539
-1.244031 -0.177050 3.708378 0.248100 -0.729781 -0.072185
-1.232539 -0.374577 3.222877 0.300307 -0.736797 -0.071123
-1.081956 -0.570945 2.952922 0.336903 -0.728231 -0.073849
-0.906879 -0.795564 2.932128 0.363390 -0.704230 -0.077091
-0.916769 -0.883475 2.905771 0.369262 -0.723911 -0.085585
-0.992322 -0.751133 3.011981 0.343563 -0.747063 -0.089685
-0.889700 -0.799070 3.694451 0.341974 -0.746299 -0.091688
-0.589273 -0.702542 4.533308 0.333776 -0.705257 -0.089139
-0.737987 -0.878589 5.665581 0.342269 -0.730494 -0.094398
-0.860943 -0.786399 6.468935 0.261699 -0.714894 -0.090575
-1.089027 -1.039067 7.866917 0.194376 -0.705687 -0.095873
-1.084647 -1.831979 10.042882 0.209864 -0.662869 -0.097434
-0.797397 -1.577717 11.437869 0.131792 -0.608082 -0.099544
-0.840104 -0.887786 12.281860 0.023600 -0.594193 -0.104030
-0.993031 -0.777855 13.734936 -0.023303 -0.576543 -0.115402
-1.254650 -1.535790 15.651429 0.003311 -0.518327 -0.120601
-1.178637 -1.495649 16.741392 -0.093449 -0.444113 -0.122667
-1.214607 -1.651410 17.047247 -0.116978 -0.446018 -0.123391
-1.251572 -2.018213 17.933554 -0.084823 -0.446798 -0.119236
-1.351113 -2.395487 18.402177 -0.063425 -0.475047 -0.116905
-1.196884 -2.512570 18.435279 -0.076373 -0.497343 -0.118486
-1.026293 -2.500612 18.310539 -0.070976 -0.508113 -0.119967
-0.822062 -2.369418 18.114519 -0.043551 -0.519155 -0.122729
-1.040015 -2.140074 17.842300 -0.032295 -0.572869 -0.130867
-1.110146 -1.921993 17.624290 -0.049118 -0.565053 -0.128394
-1.047138 -1.736182 17.795677 -0.045407 -0.542834 -0.119961
-0.994054 -1.752063 18.160236 -0.021846 -0.529682 -0.110967
-0.992454 -1.603347 18.732989 -0.060598 -0.530351 -0.106280
-1.141505 -1.622688 20.081422 -0.134820 -0.546555 -0.104897
-1.124480 -1.788156 21.638606 -0.160102 -0.542894 -0.103077
-0.995926 -1.661325 23.572595 -0.197095 -0.509865 -0.094885
-1.115025 -0.627834 26.038723 -0.344781 -0.495188 -0.094343
-1.300431 -1.199998 29.272154 -0.320101 -0.456722 -0.093516
-1.442611 -1.410821 32.061898 -0.376636 -0.419505 -0.095014
-1.558384 -0.538756 33.408595 -0.543579 -0.406683 -0.095913
-1.731741 -1.396535 36.206528 -0.418898 -0.420710 -0.104612
-1.254516 -2.031037 38.232705 -0.365852 -0.348395 -0.102718
-1.420554 -1.691556 37.980766 -0.465551 -0.440737 -0.117589
-1.149479 -2.047803 38.180188 -0.481513 -0.474944 -0.122454
-0.985329 -3.520667 39.677308 -0.340309 -0.545569 -0.143600
-0.990545 -3.264312 39.224741 -0.385440 -0.603193 -0.155104
-0.941960 -2.435815 38.265915 -0.409893 -0.681795 -0.172554
-0.951032 -3.062156 39.274528 -0.285331 -0.695701 -0.183121
-0.981833 -3.395381 39.353513 -0.267808 -0.717949 -0.194899
-1.236737 -3.235671 39.019577 -0.319593 -0.781042 -0.201969
-0.899892 -3.312522 39.044070 -0.304949 -0.764515 -0.198205
-0.844822 -3.006649 39.146632 -0.313793 -0.781310 -0.206307
-1.103343 -2.501205 38.775541 -0.349014 -0.830881 -0.224294
-0.986075 -2.238999 38.521835 -0.363668 -0.827245 -0.233106
-0.844292 -1.991792 38.317688 -0.406435 -0.849496 -0.240596
-0.882139 -1.712654 37.967001 -0.448410 -0.896659 -0.245892
-0.930027 -1.503735 37.671997 -0.456432 -0.907952 -0.245780
-1.113764 -1.427380 37.482225 -0.444690 -0.913737 -0.250071
-1.207503 -1.133069 36.792869 -0.476195 -0.865666 -0.239233
-1.344790 -0.880016 36.126229 -0.492453 -0.863930 -0.238735
-1.409827 -0.573887 35.271240 -0.500543 -0.866300 -0.244526
-1.579199 -0.181456 34.318477 -0.506255 -0.906383 -0.250467
-1.253657 0.144933 33.421473 -0.505151 -0.887814 -0.247761
-1.095121 0.481467 32.490539 -0.515627 -0.894953 -0.251773
-1.302121 0.663742 31.828098 -0.512340 -0.913526 -0.257634
-1.497508 0.730635 31.408786 -0.498871 -0.920522 -0.268072
-1.790050 0.772957 31.212777 -0.492223 -0.937100 -0.277915
-1.804737 0.814341 31.180594 -0.489178 -0.914832 -0.281934
-1.777060 0.897904 31.183138 -0.488319 -0.903351 -0.286194
-1.813546 0.892166 31.287520 -0.474495 -0.913550 -0.292345
-1.897970 0.916051 31.285764 -0.472542 -0.925865 -0.295426
-1.906968 0.874426 31.285003 -0.466871 -0.918332 -0.292109
-1.820301 0.647284 31.135450 -0.431631 -0.890299 -0.282779
-1.719648 0.517133 30.830247 -0.424275 -0.857949 -0.271421
-1.705467 0.378303 30.446201 -0.432783 -0.839999 -0.261360
-1.713313 0.065154 30.153740 -0.414294 -0.840925 -0.254621
-1.742366 -0.008684 29.780757 -0.393756 -0.856582 -0.249939
-1.626761 0.024751 29.204545 -0.336682 -0.855996 -0.243252
-1.496864 0.036459 28.480782 -0.280547 -0.834229 -0.236403
-1.599762 -0.145096 27.873088 -0.249820 -0.830711 -0.233907
-1.642175 -0.375545 27.385366 -0.233026 -0.810578 -0.229404
-1.648662 -0.478627 26.823895 -0.223663 -0.795437 -0.226425
-1.566337 -0.373028 26.288372 -0.226327 -0.775939 -0.222163
-1.488527 -0.317786 25.888712 -0.216515 -0.764010 -0.215734
-1.362673 -0.155379 25.399118 -0.229298 -0.744798 -0.205130
-1.318174 -0.075994 25.045946 -0.233382 -0.746727 -0.197660
-1.280163 -0.088904 24.740117 -0.224040 -0.749207 -0.190648
-1.259564 -0.079529 24.425132 -0.210477 -0.757209 -0.186164
-1.204535 -0.056911 24.069443 -0.191518 -0.759547 -0.180800
-1.193104 -0.068753 23.744926 -0.174069 -0.768002 -0.178174
-1.218840 -0.103702 23.407882 -0.159241 -0.776514 -0.176622
-1.180293 -0.195075 23.084908 -0.142690 -0.772853 -0.174586
-1.191882 -0.236682 22.702291 -0.129332 -0.782135 -0.174416
-1.168596 -0.095172 22.116933 -0.136881 -0.788477 -0.173279
-1.182377 -0.008898 21.625043 -0.130226 -0.799952 -0.172635
-1.189770 0.035012 21.221315 -0.119339 -0.804246 -0.171595
-1.226566 0.084387 20.850798 -0.113424 -0.804012 -0.169359
-1.272492 0.162003 20.440560 -0.117331 -0.800938 -0.166396
-1.291993 0.202517 20.057384 -0.118789 -0.794793 -0.162056
-1.331398 0.180736 19.867047 -0.109302 -0.796730 -0.160578
-1.317828 0.068474 19.781881 -0.088485 -0.786756 -0.157197
-1.374952 0.010141 19.653768 -0.076507 -0.788136 -0.155070
-1.426620 -0.013160 19.496265 -0.071489 -0.789059 -0.152702
-1.421090 -0.075215 19.409486 -0.060125 -0.781394 -0.149364
-1.394583 -0.133196 19.330580 -0.050085 -0.769973 -0.145010
-1.373162 -0.110734 19.106653 -0.052508 -0.762310 -0.141340
-1.377497 -0.028590 18.775696 -0.062820 -0.755276 -0.136849
-1.371687 -0.038197 18.559992 -0.056212 -0.753771 -0.134689
-1.352069 -0.057552 18.255730 -0.040716 -0.745008 -0.130697
-1.315191 0.005166 17.894269 -0.035376 -0.738411 -0.128179
-1.285233 0.026658 17.509993 -0.025828 -0.733031 -0.125533
-1.248115 -0.081405 17.202293 -0.007552 -0.722520 -0.123834
-1.272894 -0.244697 16.993323 0.011517 -0.724033 -0.123324
-1.254077 -0.338929 16.716018 0.022307 -0.722393 -0.121140
-1.243719 -0.336879 16.421751 0.030404 -0.735738 -0.120401
-1.195102 -0.330574 16.202770 0.043507 -0.741565 -0.117528
-1.177124 -0.294622 15.973630 0.049119 -0.745045 -0.115998
-1.217284 -0.210751 15.678527 0.040373 -0.745344 -0.114830
-1.264385 -0.203072 15.446621 0.038102 -0.740809 -0.114565
-1.288769 -0.208382 15.260395 0.039354 -0.726676 -0.111797
-1.259870 -0.201485 15.044023 0.040957 -0.709527 -0.108656
-1.264199 -0.156212 14.767010 0.041512 -0.701511 -0.106024
-1.269347 -0.149520 14.598764 0.048202 -0.697753 -0.104414
-1.262547 -0.250250 14.536030 0.067827 -0.691251 -0.102330
-1.222195 -0.274269 14.449859 0.073326 -0.679872 -0.099194
-1.277903 -0.308717 14.449882 0.079847 -0.691560 -0.099266
-1.246871 -0.327233 14.489150 0.082172 -0.689696 -0.097644
-1.267254 -0.342673 14.610647 0.081086 -0.689260 -0.095762
-1.334402 -0.320354 14.739470 0.072081 -0.700008 -0.097947
-1.424467 -0.252702 14.919460 0.052816 -0.704761 -0.097478
-1.347491 -0.319607 15.359640 0.058984 -0.683825 -0.093490
-1.275254 -0.250039 15.456190 0.043412 -0.659942 -0.087521
-1.302648 -0.225952 15.826429 0.044162 -0.655536 -0.084100
-1.217720 -0.280152 16.186743 0.054305 -0.626753 -0.075895
-1.162525 -0.363226 16.704934 0.066835 -0.598140 -0.066432
-1.151647 -0.450502 17.172443 0.064054 -0.593950 -0.063783
-1.170718 -0.567529 17.804124 0.050270 -0.582789 -0.058359
-1.126575 -0.790612 18.581650 0.042636 -0.583615 -0.057922
-1.091638 -0.960627 19.445095 0.031975 -0.589072 -0.057006
-1.068403 -0.949683 20.175738 0.006751 -0.611626 -0.059619
-1.011344 -0.868033 21.151711 -0.029714 -0.642128 -0.060936
-0.959814 -0.978147 21.894487 -0.029181 -0.650726 -0.062970
-0.941483 -1.129388 22.999506 -0.036318 -0.640016 -0.064336
-0.934826 -1.135367 23.884094 -0.065442 -0.609505 -0.065897
-1.057911 -1.056797 24.688998 -0.107933 -0.566760 -0.067336
-1.271064 -0.937046 25.647608 -0.174127 -0.506159 -0.068187
-1.468602 -1.293889 27.417818 -0.173283 -0.458351 -0.069356
-1.463925 -1.688323 29.216052 -0.180205 -0.390881 -0.064180
-1.418112 -1.794085 31.451134 -0.217351 -0.363691 -0.065645
-1.470050 -1.456569 32.646464 -0.333246 -0.336590 -0.062868
-1.594224 -1.294716 35.128736 -0.410197 -0.317168 -0.071606
-1.727715 -2.120227 38.277225 -0.344228 -0.318443 -0.084871
-1.612359 -2.660248 40.548410 -0.341700 -0.268722 -0.082623
-1.505221 -1.962708 41.444905 -0.523406 -0.274252 -0.089452
-1.662812 -1.943462 43.094003 -0.561109 -0.352961 -0.103733
-1.215832 -3.121430 45.338857 -0.425740 -0.339760 -0.106717
-1.009408 -3.609889 46.383126 -0.431729 -0.345170 -0.111758
-0.925155 -3.196665 45.956111 -0.603347 -0.378398 -0.118716
-0.725069 -3.667080 46.482681 -0.599198 -0.401717 -0.124919
-0.498643 -4.576663 47.557172 -0.475368 -0.410566 -0.126709
-0.268125 -4.592667 47.659032 -0.431564 -0.441550 -0.135116
-0.692754 -3.956002 46.618469 -0.496153 -0.558733 -0.147163
-0.432971 -4.057119 46.341046 -0.487457 -0.578886 -0.150267
-0.176258 -4.760505 46.810223 -0.391206 -0.635550 -0.162951
-0.070977 -4.584252 46.497115 -0.406380 -0.683787 -0.167111
-0.416545 -4.250528 45.824622 -0.430142 -0.821112 -0.192365
-0.669202 -3.810908 45.473916 -0.464616 -0.854990 -0.200028
-0.587253 -3.676606 45.326142 -0.442669 -0.844415 -0.209445
-1.109405 -3.152703 45.022303 -0.462938 -0.909860 -0.222461
-0.795616 -2.624618 44.629864 -0.490528 -0.847816 -0.219324
-0.984953 -2.177066 44.207957 -0.530472 -0.866520 -0.223349
-1.041120 -2.087387 44.047003 -0.550525 -0.886567 -0.230605
-0.925025 -1.890174 43.765786 -0.584170 -0.866073 -0.227134
-1.053276 -1.400648 43.233776 -0.619729 -0.915236 -0.235707
-1.303993 -0.829826 42.724432 -0.654835 -0.961183 -0.243971
-1.041402 -0.550010 42.248620 -0.662233 -0.872302 -0.232737
-1.775448 -0.186870 41.439308 -0.662465 -1.001773 -0.266484
-1.818778 0.001893 40.983538 -0.666776 -1.001418 -0.270341
-1.615098 0.339282 39.922428 -0.663791 -0.965781 -0.273380
-1.683691 0.282510 39.534885 -0.592296 -1.021480 -0.291875
-1.729761 0.333350 38.319459 -0.540009 -1.062901 -0.302632
-1.169707 0.541467 36.702595 -0.539862 -0.981614 -0.292921
-1.411070 0.664808 35.104447 -0.534307 -1.050096 -0.302172
-1.653458 0.439920 33.622928 -0.488906 -1.071755 -0.298675
-1.835065 0.630562 31.802677 -0.465384 -1.022497 -0.284294
-1.860609 0.715413 30.335884 -0.368918 -1.028535 -0.283468
-1.991469 1.302473 27.732023 -0.338491 -1.056213 -0.277045
-1.753897 2.027430 24.446930 -0.344814 -1.056345 -0.267979
-1.890227 1.989394 23.254868 -0.289632 -1.142281 -0.279766
-1.949205 1.051452 22.700033 -0.097961 -1.213383 -0.284033
-1.759109 0.932009 20.971201 -0.038644 -1.205556 -0.272019
-1.772416 1.717153 18.504971 -0.093424 -1.237886 -0.268093
-1.952144 2.119724 17.079777 -0.080454 -1.269358 -0.262278
-1.598635 1.341895 17.255249 0.093535 -1.215834 -0.252380
-1.658682 1.316930 16.736382 0.127492 -1.167541 -0.236409
-1.927282 2.489572 14.825925 -0.023310 -1.165652 -0.229510
-2.234589 2.838156 13.934466 -0.055169 -1.161352 -0.220850
-1.875230 2.238701 14.055784 0.048063 -1.043249 -0.198367
-1.968500 1.911111 13.955469 0.111460 -1.041938 -0.199239
-2.056223 2.082119 12.963368 0.088496 -1.012923 -0.188114
-1.878366 2.137706 11.851489 0.083129 -0.963603 -0.172222
-1.627173 1.795466 11.408722 0.156487 -0.935819 -0.163364
-1.662037 1.457153 10.943140 0.239288 -0.945398 -0.158853
-1.638870 1.678123 9.821322 0.239209 -0.924324 -0.153614
-1.679358 1.683974 8.743112 0.243143 -0.915546 -0.153360
-1.680410 1.171491 8.287963 0.312092 -0.881441 -0.150738
-1.802005 0.877305 7.468538 0.340276 -0.873989 -0.147921
-1.812376 1.064952 6.159388 0.303616 -0.862598 -0.142701
-1.758912 1.094436 5.000333 0.294383 -0.857302 -0.137038
-1.327836 0.818546 4.452855 0.340455 -0.806316 -0.125741
-1.492175 0.448708 4.096241 0.403394 -0.854327 -0.128574
-1.156172 0.359706 3.355051 0.407341 -0.793506 -0.114734
-1.224631 0.668767 2.293884 0.353404 -0.797043 -0.113412
-1.267752 0.517673 1.816880 0.361333 -0.803407 -0.114116
-1.391685 0.157134 1.799077 0.403663 -0.800147 -0.109753
-1.266788 0.119435 1.625239 0.405423 -0.773087 -0.105300
-1.235537 0.382571 0.921426 0.365982 -0.768821 -0.101770
-1.553829 0.454487 0.825814 0.364937 -0.833581 -0.108033
-1.332132 0.258942 0.966228 0.394027 -0.790931 -0.096884
-1.059960 0.170587 1.007328 0.398901 -0.745523 -0.088728
-1.228901 0.251037 1.029867 0.374518 -0.760886 -0.088132
-1.160779 0.238367 0.985944 0.358098 -0.740213 -0.084543
-1.315363 0.052456 1.328697 0.364421 -0.715998 -0.076734
-1.171365 -0.150513 1.606501 0.371976 -0.675512 -0.074440
-1.568391 -0.086911 1.821661 0.341663 -0.710083 -0.079260
-1.429361 -0.059746 1.883604 0.318822 -0.685820 -0.077693
-1.249840 -0.028354 2.101054 0.305453 -0.662332 -0.075168
-1.330481 -0.059695 2.358021 0.311594 -0.699397 -0.080086
-1.390201 -0.097667 2.438302 0.316984 -0.729439 -0.081142
-1.304304 -0.103410 2.479190 0.312512 -0.698306 -0.069302
-1.339002 -0.286727 2.666557 0.334316 -0.703540 -0.068743
-1.179566 -0.499686 2.698875 0.355646 -0.664413 -0.063407
-0.889343 -0.598136 2.730638 0.360820 -0.608270 -0.059366
-1.306169 -0.696691 2.888983 0.371631 -0.672156 -0.070940
-1.185603 -0.889750 3.077036 0.393551 -0.648566 -0.071276
-1.263055 -0.870823 3.199075 0.393193 -0.673643 -0.074702
-1.252443 -0.768059 3.250445 0.383301 -0.711759 -0.080347
-1.051050 -0.635411 3.341613 0.365875 -0.689979 -0.071892
-0.794083 -0.705350 3.582134 0.376879 -0.668203 -0.066752
-0.969976 -0.721520 3.784616 0.376740 -0.691674 -0.066860
-1.048913 -0.765767 3.941896 0.377389 -0.691737 -0.064920
-1.124894 -0.831144 4.056013 0.380486 -0.683716 -0.061229
-1.028175 -0.904535 4.264884 0.384964 -0.652213 -0.056625
-1.116044 -0.981698 4.530989 0.391838 -0.673287 -0.062829
-0.931533 -0.957512 4.711089 0.374892 -0.644121 -0.060446
-1.000822 -0.933160 4.981046 0.361479 -0.673564 -0.068264
-1.056318 -0.906601 5.201466 0.344763 -0.696798 -0.074224
-0.967950 -0.918844 5.462893 0.328671 -0.685934 -0.074161
-1.062584 -0.915085 5.862540 0.306461 -0.710207 -0.078608
-0.958684 -0.950951 6.208805 0.284035 -0.689091 -0.074298
-0.921844 -1.011512 6.780877 0.269734 -0.683864 -0.072965
-0.951450 -1.023448 7.277596 0.259974 -0.700158 -0.076122
-0.962047 -0.969334 7.792150 0.245957 -0.702039 -0.075501
-0.874356 -0.913550 8.305055 0.233621 -0.693535 -0.075793
-0.909584 -1.050741 9.099309 0.238589 -0.701730 -0.080960
-0.917981 -1.044351 9.705406 0.212502 -0.688229 -0.084312
-0.961228 -1.160433 10.367420 0.199355 -0.680568 -0.090110
-1.050753 -1.180240 10.916198 0.175252 -0.677957 -0.094892
-1.125314 -1.176161 11.393672 0.158290 -0.686869 -0.102672
-1.162523 -1.112812 11.907067 0.142120 -0.690535 -0.109876
-1.173074 -1.155643 12.408392 0.144140 -0.702286 -0.119025
-1.161495 -1.116706 12.812180 0.123849 -0.694936 -0.130050
-1.218139 -1.237932 12.991775 0.121639 -0.697440 -0.138976
-1.243051 -1.363025 13.269358 0.122160 -0.686790 -0.144345
-1.266464 -1.488888 13.532457 0.130560 -0.682268 -0.148920
-1.275619 -1.544302 13.716021 0.133824 -0.674316 -0.150118
-1.271029 -1.518116 13.843173 0.126920 -0.668608 -0.149192
-1.238776 -1.506866 14.025227 0.119303 -0.653896 -0.143354
-1.246352 -1.468624 14.233105 0.101645 -0.642265 -0.137735
-1.215553 -1.446370 14.480463 0.085029 -0.626171 -0.129359
-1.148731 -1.449125 14.874264 0.079260 -0.610783 -0.119951
-1.076784 -1.329064 15.178639 0.060959 -0.599689 -0.110472
-1.095385 -1.220829 15.510231 0.044464 -0.607038 -0.107293
-1.111639 -1.202524 16.066464 0.034283 -0.597452 -0.103987
-1.096750 -1.190817 16.588373 0.022716 -0.584762 -0.102378
-1.104475 -1.087385 17.037227 0.004248 -0.575047 -0.099860
-1.133373 -0.979809 17.516171 -0.010365 -0.578461 -0.100631
-1.131155 -0.927165 18.030030 -0.022481 -0.569762 -0.094882
-1.170841 -0.841473 18.472631 -0.044934 -0.565970 -0.087207
-1.145210 -0.860230 19.045560 -0.055109 -0.553948 -0.079402
-1.090222 -0.826333 19.655828 -0.071170 -0.538307 -0.074727
-1.126622 -0.845739 20.144281 -0.073922 -0.542732 -0.078662
-1.182437 -0.832613 20.692210 -0.085584 -0.537661 -0.082956
-1.245141 -0.837508 21.218309 -0.102283 -0.538050 -0.088159
-1.250982 -1.049300 21.909911 -0.093489 -0.537514 -0.090971
-1.196475 -1.076239 22.491885 -0.106396 -0.540028 -0.091130
-1.195716 -0.933203 22.633831 -0.142769 -0.555036 -0.091408
-1.215066 -1.017893 22.943874 -0.143963 -0.557863 -0.092344
-1.259358 -1.249790 23.157463 -0.120589 -0.548285 -0.095324
-1.240848 -1.328313 23.063460 -0.114170 -0.532625 -0.098330
-1.183115 -1.426259 22.900540 -0.097805 -0.534364 -0.098062
-1.091726 -1.508037 22.846498 -0.071437 -0.561532 -0.100441
-1.042346 -1.419556 22.683384 -0.070229 -0.583505 -0.102493
-1.092881 -1.357759 22.504298 -0.068492 -0.609726 -0.105832
-1.138043 -1.307589 22.388318 -0.070803 -0.619914 -0.109975
-1.210086 -1.231671 22.275925 -0.077637 -0.627450 -0.113717
-1.233348 -1.077869 22.243483 -0.094759 -0.636417 -0.115920
-1.238035 -0.914388 22.187867 -0.114389 -0.651899 -0.118213
-1.232917 -0.761842 22.176245 -0.133760 -0.657688 -0.118464
-1.185170 -0.660012 22.101875 -0.150815 -0.647882 -0.117914
-1.212780 -0.650413 22.030526 -0.155507 -0.647828 -0.119226
-1.280611 -0.643012 21.886882 -0.158351 -0.656047 -0.121355
-1.371989 -0.596419 21.681047 -0.163195 -0.674654 -0.123874
-1.371249 -0.585354 21.493731 -0.157507 -0.689868 -0.126221
-1.332670 -0.636438 21.407868 -0.140800 -0.699889 -0.127391
-1.275569 -0.523266 21.056980 -0.147610 -0.706582 -0.128081
-1.274634 -0.499571 20.830973 -0.143592 -0.708987 -0.127383
-1.260243 -0.571320 20.670703 -0.128919 -0.697976 -0.124546
-1.273637 -0.503173 20.355222 -0.138454 -0.685128 -0.121470
-1.278685 -0.485782 20.076055 -0.143744 -0.675059 -0.119809
-1.290903 -0.497946 19.873820 -0.144357 -0.673182 -0.120411
-1.330963 -0.480054 19.655968 -0.149063 -0.676735 -0.120787
-1.324016 -0.450055 19.438199 -0.153756 -0.678308 -0.120321
-1.296949 -0.461378 19.278479 -0.147165 -0.675275 -0.120441
-1.293160 -0.424942 19.126105 -0.136191 -0.678941 -0.121704
-1.292371 -0.363091 18.927913 -0.122137 -0.676876 -0.120801
-1.276006 -0.337607 18.886577 -0.122049 -0.667720 -0.118942
-1.282600 -0.336582 18.825627 -0.118773 -0.664164 -0.117747
-1.258956 -0.344670 18.848779 -0.118992 -0.652804 -0.114828
-1.227978 -0.338157 18.866459 -0.123510 -0.641347 -0.111934
-1.252848 -0.382618 18.954406 -0.120672 -0.643300 -0.111393
-1.243284 -0.428269 19.075852 -0.117645 -0.641004 -0.110456
-1.246924 -0.469772 19.192857 -0.114584 -0.643567 -0.109534
-1.258912 -0.460531 19.260783 -0.117934 -0.651680 -0.109898
-1.247039 -0.491444 19.378929 -0.115031 -0.655253 -0.109648
-1.251124 -0.512894 19.458656 -0.112979 -0.660747 -0.110185
-1.230064 -0.482411 19.483598 -0.118506 -0.658084 -0.109485
-1.223502 -0.495971 19.460653 -0.116245 -0.659889 -0.111430
-1.223799 -0.521942 19.410725 -0.111440 -0.659296 -0.112760
-1.243046 -0.570913 19.245079 -0.103853 -0.658168 -0.114564
-1.263587 -0.637842 19.100271 -0.097769 -0.658107 -0.117395
-1.283304 -0.700749 18.999809 -0.086409 -0.663380 -0.120370
-1.272376 -0.705186 18.842659 -0.075736 -0.668673 -0.122028
-1.271397 -0.646350 18.628266 -0.074572 -0.672795 -0.123314
-1.295946 -0.659940 18.448925 -0.069933 -0.677068 -0.124585
-1.283957 -0.681119 18.283881 -0.069046 -0.672866 -0.124144
-1.266080 -0.656682 18.177796 -0.073484 -0.667090 -0.122367
-1.237312 -0.662905 18.187620 -0.071963 -0.662047 -0.119733
-1.201707 -0.679455 18.208084 -0.072325 -0.656080 -0.116552
-1.215775 -0.602741 18.409574 -0.088985 -0.658435 -0.116707
-1.182983 -0.624704 18.782713 -0.079283 -0.654713 -0.115799
-1.191521 -0.655074 19.242487 -0.049371 -0.669032 -0.117641
-1.156778 -0.281829 19.511192 -0.075426 -0.680761 -0.118433
-1.101527 -0.342509 20.013901 -0.074754 -0.692645 -0.118499
-1.109890 -0.595348 20.984467 -0.100636 -0.685151 -0.117759
-1.186136 -0.694862 21.664322 -0.147266 -0.671529 -0.114501
-1.175801 -0.654151 22.470582 -0.161387 -0.648621 -0.109995
-1.201166 -0.594746 23.226250 -0.165288 -0.617633 -0.105467
-1.276037 -0.686259 24.020046 -0.177204 -0.593662 -0.106347
-1.338575 -0.878824 24.606665 -0.192851 -0.576392 -0.106544
-1.318660 -0.995880 25.177109 -0.192541 -0.566501 -0.103725
-1.273972 -0.989290 25.471921 -0.194930 -0.565948 -0.101204
-1.334803 -0.989490 25.628451 -0.201794 -0.561937 -0.101238
-1.371364 -1.101764 25.741616 -0.195797 -0.551284 -0.106045
-1.319323 -1.335668 25.825527 -0.166902 -0.556937 -0.113097
-1.248808 -1.413041 25.704341 -0.154762 -0.571331 -0.115345
-1.122551 -1.455683 25.619316 -0.140318 -0.591164 -0.117137
-1.126707 -1.537240 25.654882 -0.118015 -0.622248 -0.121414
-1.141409 -1.434945 25.587812 -0.129256 -0.624049 -0.122163
-1.197135 -1.347748 25.554261 -0.140125 -0.626673 -0.122688
-1.226658 -1.262659 25.601222 -0.153554 -0.629279 -0.123448
-1.245644 -1.163331 25.633759 -0.169231 -0.640638 -0.125719
-1.217832 -1.012219 25.634607 -0.187182 -0.656669 -0.127640
-1.126151 -0.883075 25.623095 -0.200824 -0.656992 -0.127119
-1.117657 -0.816007 25.608581 -0.212956 -0.657917 -0.126905
-1.174035 -0.771321 25.579723 -0.225781 -0.662881 -0.127900
-1.210688 -0.730438 25.539646 -0.234496 -0.667319 -0.128867
-1.244207 -0.677273 25.500456 -0.239936 -0.681599 -0.132102
-1.238502 -0.637089 25.412824 -0.241958 -0.692716 -0.135397
-1.243982 -0.606290 25.297521 -0.243044 -0.706635 -0.138993
-1.219255 -0.612958 25.230110 -0.238730 -0.714429 -0.142048
-1.212519 -0.577581 25.031005 -0.236733 -0.722432 -0.144681
-1.223959 -0.551631 24.717449 -0.230611 -0.722789 -0.147002
-1.284324 -0.589731 24.384903 -0.217120 -0.727942 -0.150868
-1.341985 -0.663101 23.859911 -0.206062 -0.724552 -0.153580
-1.371667 -0.647714 23.521519 -0.205328 -0.725323 -0.154535
-1.387971 -0.577796 23.020721 -0.211858 -0.731749 -0.156125
-1.398012 -0.567562 22.631134 -0.211170 -0.735813 -0.156113
-1.365599 -0.506868 22.172694 -0.217934 -0.735127 -0.155429
-1.402275 -0.461291 21.703534 -0.210592 -0.752897 -0.157366
-1.399017 -0.341532 21.124523 -0.202288 -0.754133 -0.155660
-1.392265 -0.240340 20.577331 -0.175760 -0.755944 -0.156261
-1.405841 -0.058995 19.744225 -0.161396 -0.745629 -0.154919
-1.435450 0.026975 18.965562 -0.155075 -0.737389 -0.151816
-1.392400 0.040980 18.246395 -0.135936 -0.741711 -0.148249
-1.292046 0.046748 17.664304 -0.101076 -0.763574 -0.145078
-1.211784 0.145743 16.765200 -0.081470 -0.786466 -0.137936
-1.184470 0.256468 15.873752 -0.077217 -0.806852 -0.133251
-1.203846 0.218684 14.994276 -0.057605 -0.811808 -0.128818
-1.223760 0.078527 14.399550 -0.022855 -0.814755 -0.130654
-1.269195 0.229490 13.282579 -0.024153 -0.817223 -0.133575
-1.367029 0.343841 12.252900 -0.003705 -0.843338 -0.140600
-1.352670 0.121176 11.421784 0.058153 -0.856855 -0.142230
-1.357795 0.164493 10.503786 0.076207 -0.869372 -0.142590
-1.430953 -0.005534 9.681394 0.114589 -0.896186 -0.147613
-1.341997 0.049785 8.616898 0.126399 -0.877484 -0.146894
-1.515680 0.009343 7.798264 0.163381 -0.913996 -0.156842
-1.617148 0.027111 6.893906 0.186053 -0.915898 -0.158571
-1.635570 0.202297 5.932678 0.181424 -0.905535 -0.159682
-1.776924 -0.051852 5.536545 0.235520 -0.908482 -0.160644
-1.559026 0.059698 4.593802 0.234047 -0.860973 -0.155489
-1.703833 0.277392 3.681181 0.225449 -0.880826 -0.158899
-1.618869 0.074579 3.432075 0.271859 -0.860412 -0.156214
-1.585010 -0.041051 3.099723 0.303429 -0.841683 -0.152192
-1.616378 0.235872 2.422032 0.273143 -0.826359 -0.144953
-1.418250 0.114019 2.359350 0.304970 -0.776202 -0.133954
-1.413589 -0.038153 2.435046 0.343068 -0.771528 -0.129137
-1.297519 0.220532 2.084399 0.315399 -0.751150 -0.121948
-1.276906 0.302468 2.118677 0.305507 -0.750884 -0.119076
-1.114138 0.093217 2.577372 0.328920 -0.721353 -0.112013
-1.065160 0.180927 2.666910 0.296059 -0.701573 -0.106275
-1.163081 0.273871 2.846828 0.259807 -0.696859 -0.103489
-1.212895 0.058563 3.377815 0.269504 -0.678984 -0.101606
-1.288579 -0.047463 3.797547 0.269284 -0.668975 -0.102898
-1.280660 -0.001767 3.992884 0.256292 -0.660660 -0.103896
-1.187112 -0.091573 4.313332 0.268673 -0.651277 -0.102943
-1.202192 -0.259489 4.844800 0.293442 -0.663293 -0.102877
-1.168067 -0.300838 5.165681 0.284700 -0.662974 -0.102008
-1.221374 -0.391523 5.558978 0.269125 -0.665656 -0.101517
-1.167330 -0.518633 6.144988 0.257352 -0.652087 -0.100551
-1.135825 -0.560394 6.730841 0.243195 -0.653360 -0.101392
-0.993126 -0.556424 7.489182 0.236628 -0.650406 -0.098970
-0.920808 -0.583694 8.026796 0.230313 -0.642407 -0.096792
-0.894654 -0.634455 8.708711 0.211796 -0.631146 -0.093961
-0.901360 -0.795684 9.612962 0.199286 -0.615380 -0.092896
-0.959388 -0.973191 10.660181 0.192087 -0.601102 -0.093322
-1.040261 -0.948869 11.397870 0.163892 -0.586891 -0.098165
-1.134210 -0.830564 12.051069 0.114324 -0.563446 -0.104551
-1.222607 -1.085067 13.332299 0.113987 -0.541311 -0.112888
-1.205150 -1.367776 14.374020 0.116299 -0.516570 -0.116671
-1.204859 -1.130432 14.919199 0.047685 -0.496176 -0.112335
-1.208350 -1.292745 15.951450 0.054264 -0.480277 -0.104197
-1.134239 -1.457191 16.926755 0.055278 -0.452896 -0.098366
-1.220345 -1.355910 17.517459 0.004434 -0.443620 -0.097918
-1.244006 -1.504633 18.429901 -0.011951 -0.432221 -0.097638
-1.230667 -1.743529 19.323286 0.001577 -0.438972 -0.098493
-1.255017 -1.598644 19.818833 -0.031082 -0.450778 -0.093590
-1.233866 -1.460984 20.260717 -0.069527 -0.451498 -0.088636
-1.179442 -1.864208 21.754087 -0.061868 -0.425738 -0.084095
-1.180979 -1.978646 22.155397 -0.056698 -0.419911 -0.084157
-1.166888 -1.777201 22.493767 -0.112734 -0.390954 -0.081671
-1.241502 -1.640176 23.080129 -0.147493 -0.384647 -0.083455
-1.239839 -1.924613 24.129082 -0.128238 -0.382187 -0.086857
-1.225148 -1.967019 24.935290 -0.153204 -0.383708 -0.087333
-1.155494 -1.739210 25.503403 -0.218413 -0.388258 -0.086145
-1.131769 -1.654807 26.797661 -0.249174 -0.399775 -0.085916
-1.104186 -1.955671 28.438665 -0.222925 -0.394740 -0.085020
-1.087523 -1.599107 29.398053 -0.319016 -0.349956 -0.078889
-1.355504 -1.505445 31.539512 -0.374685 -0.352981 -0.084926
-1.448735 -2.053469 33.928953 -0.336601 -0.336983 -0.086947
-1.237746 -2.475917 36.539355 -0.312237 -0.285048 -0.083746
-1.262839 -1.557058 37.336721 -0.480798 -0.298615 -0.087387
-1.458073 -1.461105 39.195592 -0.513850 -0.366850 -0.099885
-1.176871 -2.438974 42.069877 -0.407806 -0.358601 -0.102619
-0.891636 -2.685779 43.298465 -0.407756 -0.334744 -0.104385
-0.949143 -2.234473 42.901035 -0.528963 -0.394248 -0.120889
-1.137096 -2.440283 43.039025 -0.562787 -0.460255 -0.133600
-0.733788 -3.640506 43.969710 -0.448512 -0.459343 -0.142451
-0.691488 -3.954622 44.073667 -0.396036 -0.532937 -0.155440
-0.825792 -3.328429 42.666119 -0.421735 -0.672799 -0.172272
-0.592991 -2.842242 41.521262 -0.410480 -0.714611 -0.176787
-0.015839 -3.390385 41.134118 -0.310441 -0.681732 -0.182256
-0.464085 -3.740132 40.987471 -0.269825 -0.778344 -0.202858
-0.496020 -3.624312 40.185333 -0.291694 -0.797297 -0.205527
-0.704013 -3.414236 39.455983 -0.298754 -0.846167 -0.205030
-0.574442 -2.977245 39.233041 -0.302765 -0.859872 -0.205019
-0.589206 -2.649916 38.994677 -0.294540 -0.866167 -0.207254
-0.640427 -2.124569 38.667291 -0.295708 -0.865970 -0.221259
-0.900910 -1.723303 38.133731 -0.335435 -0.883207 -0.231359
-0.927132 -1.390471 37.094157 -0.400596 -0.848269 -0.231119
-1.114874 -1.260300 36.581039 -0.434583 -0.867261 -0.237080
-1.200357 -1.140791 35.663483 -0.438260 -0.882928 -0.240260
-1.038952 -0.722414 34.651807 -0.453852 -0.874692 -0.245955
-1.195386 -0.361480 33.735375 -0.434811 -0.906313 -0.257416
-1.075529 -0.272861 33.082321 -0.388897 -0.894219 -0.265921
-1.469115 -0.030741 32.182372 -0.380903 -0.974192 -0.287025
-1.668012 0.279167 31.325579 -0.397136 -1.000211 -0.293664
-1.803274 0.288947 30.836854 -0.365913 -1.030939 -0.296378
-1.836551 0.370452 30.401859 -0.334110 -1.032656 -0.291179
-1.743804 0.910862 29.503417 -0.368023 -1.008044 -0.281906
-1.930953 1.424248 28.765690 -0.403322 -1.043477 -0.284770
-1.881468 1.416336 28.742402 -0.381983 -1.025161 -0.280761
-1.798969 1.428279 28.687867 -0.377276 -0.980451 -0.272367
-1.855158 1.688517 28.454553 -0.408922 -0.967223 -0.271549
-1.989562 1.843588 28.403248 -0.418533 -0.958220 -0.273290
-1.916587 1.686024 28.587969 -0.390010 -0.916873 -0.269374
-1.925973 1.483456 28.828424 -0.360416 -0.900961 -0.270331
-2.069012 1.370201 28.820214 -0.347340 -0.916872 -0.272737
-2.065365 1.224317 28.967547 -0.326400 -0.912451 -0.271398
-2.028479 1.040114 28.802760 -0.296356 -0.912012 -0.270533
-2.000069 0.923889 28.804661 -0.281793 -0.914707 -0.269663
-1.859724 0.752778 28.694075 -0.272487 -0.879399 -0.258673
-1.682609 0.581686 28.538156 -0.272411 -0.844807 -0.247172
-1.578399 0.377422 28.335110 -0.273234 -0.822828 -0.236516
-1.390560 0.198064 28.134134 -0.259490 -0.775711 -0.221320
-1.278110 0.044954 27.902548 -0.217524 -0.755979 -0.210931
-1.157695 -0.000862 27.674838 -0.173578 -0.726562 -0.200155
-1.055715 -0.083709 27.207539 -0.151182 -0.693504 -0.192606
-1.158535 -0.262365 26.807194 -0.140850 -0.698178 -0.193800
-1.234285 -0.536997 26.520385 -0.117502 -0.697996 -0.193376
-1.286492 -0.656361 26.183777 -0.091943 -0.707344 -0.192747
-1.384648 -0.587964 25.722831 -0.083210 -0.738946 -0.193560
-1.364901 -0.550703 25.291305 -0.089083 -0.749145 -0.191336
-1.260068 -0.615015 25.065139 -0.095555 -0.743973 -0.188842
-1.136395 -0.806606 24.954391 -0.085296 -0.738694 -0.186633
-1.051877 -0.828226 24.826737 -0.087608 -0.730746 -0.182557
-1.007385 -0.774820 24.621701 -0.093548 -0.718357 -0.176801
-1.047893 -0.751556 24.484139 -0.093125 -0.709717 -0.173824
-1.107419 -0.784650 24.462858 -0.088276 -0.698107 -0.171835
-1.164810 -0.796374 24.399044 -0.088967 -0.691087 -0.171318
-1.208721 -0.788964 24.301581 -0.091361 -0.692592 -0.171709
-1.259743 -0.785785 24.183732 -0.090047 -0.704450 -0.172411
-1.329593 -0.724729 24.047448 -0.094356 -0.724084 -0.173611
-1.376134 -0.742994 23.929743 -0.086622 -0.741954 -0.175040
-1.379818 -0.716070 23.744569 -0.085984 -0.746678 -0.173988
-1.376321 -0.695034 23.620087 -0.087507 -0.745768 -0.172822
-1.333140 -0.669694 23.485264 -0.087670 -0.730762 -0.168707
-1.301339 -0.691655 23.417885 -0.079100 -0.714689 -0.164111
-1.324178 -0.619916 23.326404 -0.083525 -0.709256 -0.161440
-1.307802 -0.545830 23.318163 -0.091126 -0.698405 -0.158163
-1.282520 -0.495022 23.401677 -0.093294 -0.692088 -0.156169
-1.267075 -0.450618 23.535799 -0.092613 -0.686762 -0.155216
-1.270740 -0.371641 23.650569 -0.099172 -0.680822 -0.154915
-1.304364 -0.301116 23.771224 -0.105587 -0.679402 -0.155688
-1.368892 -0.342452 24.032812 -0.091334 -0.683394 -0.156492
-1.396813 -0.350434 24.286920 -0.080344 -0.687496 -0.158001
-1.395114 -0.369985 24.536462 -0.073381 -0.688735 -0.158366
-1.348083 -0.378921 24.699408 -0.082233 -0.684315 -0.157644
-1.296797 -0.535919 25.032910 -0.082512 -0.677588 -0.156714
-1.235314 -0.639270 25.267558 -0.093506 -0.663967 -0.153848
-1.222292 -0.666548 25.453848 -0.105461 -0.659301 -0.153101
-1.238632 -0.729919 25.685010 -0.104013 -0.655621 -0.151980
-1.206453 -0.784309 25.891885 -0.100727 -0.640517 -0.149107
-1.208573 -0.770461 25.988016 -0.105923 -0.639907 -0.149397
-1.224397 -0.744868 26.063491 -0.113278 -0.639459 -0.148518
