fx fy fz tx ty tz 
-1.885948 0.343307 0.719199 -0.076818 -0.685567 -0.154568
-1.877938 0.328526 0.672410 -0.075342 -0.683633 -0.154126
-1.871772 0.442644 0.625896 -0.090573 -0.682887 -0.154101
-1.893607 0.275245 0.890822 -0.066013 -0.689577 -0.156633
-1.891195 0.142736 1.015564 -0.049378 -0.688417 -0.156706
-1.871409 0.189377 0.944046 -0.062027 -0.685116 -0.155306
-1.888536 0.271590 0.861177 -0.079451 -0.688912 -0.156310
-1.917139 0.211677 0.921784 -0.077941 -0.693818 -0.157342
-1.898655 0.088074 1.030513 -0.064278 -0.693050 -0.157841
-1.889656 0.095176 1.115758 -0.068201 -0.690037 -0.158303
-1.901589 0.118381 1.144436 -0.080156 -0.689715 -0.158619
-1.900263 0.147471 1.106629 -0.094262 -0.685745 -0.157662
-1.894780 0.127758 1.205789 -0.100003 -0.680669 -0.156896
-1.890264 0.118518 1.247345 -0.107027 -0.676122 -0.156523
-1.897740 0.145279 1.240700 -0.118390 -0.672682 -0.157212
-1.898814 0.099331 1.328293 -0.120276 -0.666449 -0.156692
-1.887891 0.010421 1.418903 -0.115871 -0.657529 -0.153338
-1.872303 -0.028507 1.485727 -0.114655 -0.648326 -0.149041
-1.879817 0.051246 1.451491 -0.134005 -0.644253 -0.144284
-1.861040 0.069974 1.460634 -0.143641 -0.636057 -0.139576
-1.838485 0.127920 1.471709 -0.159243 -0.625552 -0.135686
-1.830158 0.173991 1.471170 -0.173516 -0.620641 -0.133905
-1.828186 0.235693 1.481943 -0.191246 -0.610680 -0.132055
-1.818232 0.217633 1.454702 -0.192735 -0.605323 -0.130998
-1.795920 0.161654 1.564739 -0.186721 -0.597946 -0.130454
-1.827799 0.147086 1.645760 -0.182192 -0.599005 -0.130750
-1.745703 0.033911 1.647193 -0.168836 -0.575478 -0.125217
-1.703282 0.034664 1.707684 -0.169496 -0.560395 -0.121650
-1.701317 -0.033399 1.695045 -0.164145 -0.557332 -0.120139
-1.700650 0.011781 1.662290 -0.174885 -0.551658 -0.117878
-1.702999 0.020875 1.721129 -0.182872 -0.551267 -0.116991
-1.711265 0.098027 1.618582 -0.199286 -0.549894 -0.115515
-1.694664 0.152988 1.666680 -0.206137 -0.545502 -0.114899
-1.686896 0.152223 1.714503 -0.206224 -0.542569 -0.114457
-1.681030 0.098773 1.796134 -0.196210 -0.539182 -0.114369
-1.668660 0.130903 1.756304 -0.197118 -0.531161 -0.112592
-1.657758 0.109326 1.707045 -0.190929 -0.523757 -0.110708
-1.662393 0.021503 1.691564 -0.178903 -0.520393 -0.110046
-1.632045 0.012352 1.739010 -0.181754 -0.510483 -0.108536
-1.645172 0.023966 1.713474 -0.189259 -0.514225 -0.109825
-1.672878 0.049154 1.752606 -0.199408 -0.516167 -0.111114
-1.691301 0.037606 1.745458 -0.202638 -0.520688 -0.112279
-1.687605 0.098101 1.735332 -0.213004 -0.517351 -0.111768
-1.680889 0.136001 1.722722 -0.220596 -0.516335 -0.111497
-1.672597 0.107623 1.762343 -0.211757 -0.514851 -0.112508
-1.659338 0.072013 1.835702 -0.200309 -0.511256 -0.113893
-1.662480 0.037454 1.769683 -0.187292 -0.510120 -0.114399
-1.658267 0.053487 1.694067 -0.182315 -0.508662 -0.115677
-1.671109 -0.073903 1.787277 -0.158480 -0.513052 -0.117843
-1.665519 -0.061176 1.734566 -0.159758 -0.510774 -0.117414
-1.661956 -0.076146 1.726579 -0.162205 -0.509827 -0.116971
-1.671941 -0.113144 1.742990 -0.163712 -0.510996 -0.116784
-1.683972 -0.140479 1.754639 -0.165586 -0.514110 -0.117224
-1.695663 -0.131116 1.765837 -0.171791 -0.516250 -0.117272
-1.696468 -0.100933 1.712760 -0.179869 -0.516597 -0.116531
-1.711902 -0.128669 1.766221 -0.177504 -0.519830 -0.117462
-1.703501 -0.108421 1.740096 -0.181730 -0.518112 -0.116329
-1.699161 -0.124068 1.738157 -0.179872 -0.517952 -0.115866
-1.687871 -0.117872 1.730107 -0.180018 -0.513722 -0.114971
-1.676155 -0.156168 1.729925 -0.172596 -0.511236 -0.114093
-1.670121 -0.147296 1.692185 -0.171531 -0.507909 -0.113375
-1.657974 -0.126191 1.658756 -0.172017 -0.505773 -0.112718
-1.663956 -0.110939 1.632099 -0.172142 -0.505060 -0.112692
-1.670275 -0.083489 1.636114 -0.173724 -0.506607 -0.113369
-1.667470 -0.049314 1.619581 -0.176183 -0.505892 -0.113157
-1.676813 -0.008652 1.548568 -0.179777 -0.506663 -0.112745
-1.687647 0.010029 1.502182 -0.180175 -0.509370 -0.112922
-1.684132 0.087601 1.448118 -0.188477 -0.507349 -0.111980
-1.693002 0.066768 1.440153 -0.183793 -0.510467 -0.112380
-1.680520 0.095448 1.415936 -0.183788 -0.508057 -0.111935
-1.675795 0.077417 1.407746 -0.176439 -0.507936 -0.112106
-1.672100 0.058101 1.386766 -0.167497 -0.506582 -0.112093
-1.665826 0.038821 1.357992 -0.158660 -0.505919 -0.111953
-1.669556 0.028338 1.331850 -0.150631 -0.505912 -0.112245
-1.669729 0.018612 1.318874 -0.142958 -0.506868 -0.113116
-1.675977 0.023932 1.292063 -0.137192 -0.508183 -0.114262
-1.683964 0.038415 1.256915 -0.134170 -0.509692 -0.115447
-1.694194 0.025504 1.225976 -0.127355 -0.511873 -0.115987
-1.707476 0.045467 1.210449 -0.126788 -0.514139 -0.116589
-1.703834 0.015566 1.214940 -0.120323 -0.515514 -0.117037
-1.695219 0.017093 1.208866 -0.118588 -0.513409 -0.116440
-1.692764 0.004961 1.216690 -0.115902 -0.513001 -0.116736
-1.684590 0.006303 1.223639 -0.115895 -0.511513 -0.116799
-1.673507 0.023988 1.234981 -0.118358 -0.509713 -0.116866
-1.681099 0.014203 1.239978 -0.116785 -0.510893 -0.117567
-1.676644 0.008719 1.265822 -0.116117 -0.510447 -0.118085
-1.681247 0.007985 1.269817 -0.116364 -0.511664 -0.118582
-1.689372 0.025135 1.286839 -0.118317 -0.513573 -0.119147
-1.699068 0.015998 1.267719 -0.117401 -0.516159 -0.119691
-1.705257 0.029066 1.257153 -0.117132 -0.518102 -0.120375
-1.717700 0.026086 1.251523 -0.113982 -0.522262 -0.121153
-1.713531 0.010933 1.245505 -0.108705 -0.520967 -0.120996
-1.706728 0.024551 1.258335 -0.107313 -0.520681 -0.121185
-1.708780 0.013209 1.249067 -0.103923 -0.520680 -0.121314
-1.702314 0.016740 1.251269 -0.103093 -0.518602 -0.120838
-1.689629 -0.000641 1.246311 -0.100231 -0.515585 -0.119883
-1.685302 0.016835 1.265667 -0.102322 -0.513993 -0.119819
-1.683870 0.013905 1.263947 -0.102329 -0.514178 -0.119854
-1.687643 0.036284 1.261549 -0.105859 -0.514615 -0.119825
-1.700576 0.045977 1.260018 -0.108180 -0.518121 -0.120194
-1.702489 0.054442 1.264981 -0.110682 -0.518638 -0.120168
-1.706445 0.065699 1.264294 -0.113622 -0.520797 -0.120571
-1.714484 0.070779 1.258637 -0.115564 -0.523273 -0.120951
-1.713580 0.062503 1.260627 -0.115441 -0.524111 -0.120802
-1.707375 0.041441 1.255244 -0.113315 -0.523686 -0.120320
-1.703080 0.024112 1.257251 -0.111244 -0.522152 -0.119870
-1.704904 -0.009985 1.265255 -0.106445 -0.523452 -0.120106
-1.700895 0.003273 1.247558 -0.108531 -0.521614 -0.119730
-1.698045 -0.009884 1.253886 -0.106558 -0.521007 -0.119648
-1.697301 0.033093 1.218318 -0.112626 -0.518947 -0.118784
-1.698707 0.088581 1.165341 -0.120196 -0.518627 -0.118267
-1.702424 0.111077 1.160943 -0.122560 -0.519347 -0.118436
-1.695417 0.147809 1.140485 -0.126828 -0.517286 -0.117554
-1.703081 0.125395 1.138069 -0.122680 -0.519460 -0.117799
-1.694600 0.152473 1.100664 -0.125588 -0.517688 -0.117078
-1.697423 0.125710 1.105517 -0.120417 -0.518616 -0.117104
-1.698695 0.125228 1.096452 -0.118701 -0.518407 -0.117006
-1.693994 0.094742 1.101131 -0.112474 -0.518841 -0.117143
-1.692338 0.134377 1.074079 -0.116224 -0.517611 -0.116774
-1.688863 0.125425 1.067913 -0.113187 -0.517370 -0.116539
-1.695076 0.130883 1.063717 -0.111656 -0.518747 -0.117071
-1.693212 0.155655 1.048076 -0.114106 -0.517764 -0.116467
-1.697499 0.167254 1.025309 -0.114738 -0.519094 -0.116918
-1.701704 0.187360 1.006984 -0.116500 -0.520302 -0.117331
-1.697022 0.163022 1.021470 -0.112331 -0.519220 -0.116711
-1.690996 0.153897 1.029907 -0.110393 -0.518127 -0.116453
-1.692564 0.135498 1.019877 -0.107753 -0.518808 -0.116492
-1.696856 0.129872 1.034979 -0.106528 -0.519494 -0.116414
-1.688036 0.099668 1.044601 -0.102241 -0.518277 -0.115940
-1.687531 0.106409 1.039110 -0.102728 -0.519218 -0.116054
-1.689394 0.108476 1.035334 -0.102575 -0.519349 -0.115844
-1.695243 0.119964 1.019597 -0.103687 -0.520010 -0.115601
-1.697953 0.150133 1.000249 -0.107157 -0.520212 -0.115495
-1.699008 0.136691 1.001430 -0.104517 -0.522136 -0.116579
-1.699223 0.173104 0.977425 -0.108887 -0.521881 -0.116925
-1.701749 0.156278 0.967161 -0.106355 -0.523221 -0.117671
-1.707151 0.179677 0.942250 -0.108263 -0.523409 -0.118549
-1.703920 0.151512 0.940464 -0.102318 -0.524767 -0.119790
-1.716813 0.157463 0.934439 -0.099214 -0.527632 -0.121457
-1.716166 0.163488 0.889556 -0.097370 -0.526787 -0.121791
-1.714397 0.156282 0.894090 -0.092121 -0.527373 -0.123195
-1.716510 0.149339 0.865828 -0.087547 -0.528254 -0.124103
-1.717832 0.153985 0.835637 -0.083035 -0.528917 -0.125378
-1.725524 0.177677 0.799218 -0.084488 -0.530224 -0.126141
-1.730970 0.156866 0.789630 -0.078543 -0.532922 -0.127893
-1.727115 0.166300 0.773877 -0.076594 -0.533171 -0.129205
-1.731744 0.137790 0.791097 -0.067931 -0.535270 -0.130949
-1.732318 0.140711 0.768877 -0.064947 -0.534460 -0.131737
-1.729996 0.121770 0.743797 -0.057802 -0.534269 -0.132623
-1.726596 0.115764 0.735132 -0.053362 -0.532757 -0.132748
-1.726097 0.111606 0.699991 -0.051514 -0.532510 -0.132781
-1.726829 0.083232 0.707327 -0.045672 -0.532482 -0.133378
-1.729916 0.103989 0.713265 -0.048302 -0.533276 -0.134449
-1.730973 0.083685 0.709031 -0.047499 -0.534580 -0.135249
-1.737728 0.095010 0.717380 -0.051053 -0.535935 -0.135947
-1.735272 0.084422 0.730433 -0.051716 -0.535554 -0.136354
-1.739086 0.072573 0.729620 -0.051528 -0.537141 -0.136772
-1.736743 0.072867 0.747557 -0.051760 -0.536211 -0.136723
-1.735445 0.074301 0.736679 -0.052466 -0.535070 -0.136675
-1.730868 0.083672 0.731600 -0.053277 -0.533656 -0.136538
-1.733782 0.086969 0.724667 -0.052542 -0.535531 -0.137292
-1.739393 0.095921 0.738465 -0.052981 -0.536356 -0.137565
-1.738932 0.094489 0.765461 -0.052501 -0.537176 -0.137970
-1.729490 0.110035 0.793500 -0.054592 -0.535323 -0.137405
-1.740704 0.037512 0.807036 -0.045392 -0.538654 -0.137620
-1.749217 -0.017016 0.925693 -0.037897 -0.543167 -0.139064
-1.748162 0.041567 0.870514 -0.048393 -0.543570 -0.138904
-1.755711 0.003936 0.976734 -0.044676 -0.549996 -0.140723
-1.754571 -0.081940 1.093363 -0.035939 -0.550992 -0.140769
-1.736473 -0.079907 1.126176 -0.039258 -0.547667 -0.138983
-1.728985 -0.020915 1.104727 -0.050804 -0.545934 -0.136516
-1.742151 -0.050847 1.158253 -0.050292 -0.547980 -0.134293
-1.746224 -0.121720 1.195171 -0.052015 -0.547920 -0.131461
-1.736456 -0.151235 1.245620 -0.064156 -0.544405 -0.127747
-1.722490 -0.080675 1.303266 -0.093234 -0.540687 -0.124466
-1.725624 -0.030565 1.400314 -0.122551 -0.540494 -0.122596
-1.714898 -0.041305 1.584203 -0.141833 -0.538700 -0.121660
-1.698109 -0.059353 1.659802 -0.147098 -0.533319 -0.119846
-1.704473 0.035804 1.727276 -0.166827 -0.530507 -0.118572
-1.715390 0.037008 1.678959 -0.170165 -0.529811 -0.115880
-1.721618 -0.006285 1.751118 -0.170586 -0.526421 -0.112845
-1.688760 0.049016 1.732866 -0.189337 -0.519131 -0.109215
-1.679373 0.072041 1.732078 -0.204180 -0.515931 -0.108377
-1.696672 0.081855 1.742942 -0.216658 -0.510408 -0.108354
-1.696950 -0.003786 1.850875 -0.211047 -0.507108 -0.109401
-1.670324 0.036140 1.826245 -0.215743 -0.494575 -0.109309
-1.659633 0.058443 1.892981 -0.216365 -0.488358 -0.110344
-1.682525 0.023273 1.883784 -0.207088 -0.489708 -0.111724
-1.669706 -0.024002 1.871358 -0.189418 -0.482708 -0.110060
-1.653135 0.021070 1.834342 -0.184562 -0.478405 -0.109194
-1.679064 0.048593 1.769868 -0.180877 -0.482594 -0.109951
-1.705197 0.035764 1.759149 -0.174812 -0.488259 -0.111039
-1.686663 0.055215 1.754952 -0.179211 -0.485577 -0.110417
-1.673271 0.037379 1.764273 -0.185303 -0.486931 -0.110530
-1.690472 0.048501 1.751905 -0.193171 -0.492161 -0.111406
-1.690911 0.033991 1.741204 -0.195481 -0.495992 -0.111921
-1.684354 0.029654 1.733248 -0.197132 -0.496746 -0.112210
-1.682388 0.002930 1.737700 -0.195114 -0.498408 -0.112199
-1.697778 0.011705 1.704501 -0.196700 -0.501835 -0.112560
-1.705035 0.089480 1.655084 -0.206934 -0.503533 -0.112315
-1.694335 0.118845 1.636285 -0.210851 -0.502396 -0.111854
-1.694480 0.121821 1.636620 -0.211192 -0.502393 -0.111563
-1.692828 0.121190 1.648179 -0.210078 -0.502786 -0.111679
-1.701562 0.122854 1.624289 -0.209963 -0.503449 -0.111521
-1.698732 0.118914 1.607215 -0.209418 -0.502699 -0.111428
-1.686910 0.124269 1.621498 -0.210198 -0.500224 -0.110970
-1.690606 0.085215 1.668680 -0.204884 -0.503042 -0.111933
-1.680807 0.016341 1.714508 -0.195877 -0.502283 -0.112186
-1.682375 -0.051770 1.758743 -0.187330 -0.503129 -0.112447
-1.742075 -0.048376 1.792772 -0.189227 -0.514548 -0.114799
-1.617563 -0.087885 1.835005 -0.188077 -0.477863 -0.105731
-1.588715 -0.088488 1.885931 -0.192005 -0.464482 -0.102669
-1.564737 -0.086006 1.957049 -0.198793 -0.455471 -0.100782
-1.541202 -0.122728 1.890070 -0.205010 -0.447020 -0.098350
-1.507847 -0.042320 1.969215 -0.215889 -0.430665 -0.094879
-1.501024 -0.058605 2.037105 -0.218767 -0.426070 -0.093967
-1.497469 -0.120394 2.090552 -0.219453 -0.417310 -0.092420
-1.455774 -0.178567 2.239422 -0.212922 -0.397354 -0.089246
-1.417792 -0.131730 2.194807 -0.222325 -0.377920 -0.086108
-1.454477 -0.188838 2.347230 -0.215609 -0.372330 -0.085236
-1.405424 0.159237 1.888064 -0.267991 -0.349309 -0.079292
-1.497243 0.014277 1.990763 -0.242815 -0.351842 -0.077501
-1.353936 -0.485762 2.861624 -0.160788 -0.304953 -0.069256
-1.190179 -0.138307 2.114291 -0.213378 -0.249452 -0.054159
-1.258556 0.741220 1.615564 -0.327381 -0.262294 -0.054607
-1.275589 -0.049805 2.263919 -0.215389 -0.245868 -0.049093
-1.068066 -0.191108 2.656475 -0.194499 -0.188515 -0.036553
-1.137951 -0.624843 2.772596 -0.150750 -0.198921 -0.036465
-1.115778 0.484008 1.862742 -0.304002 -0.167876 -0.026129
-1.124957 0.069289 2.034204 -0.257804 -0.161584 -0.024851
-1.120158 -0.256436 2.271549 -0.211889 -0.152557 -0.022334
-0.916781 -0.007661 2.254738 -0.232001 -0.100688 -0.010591
-1.144150 -0.064678 1.965447 -0.230550 -0.140529 -0.016631
-1.008177 0.159619 2.257993 -0.258145 -0.113089 -0.014003
-1.112045 -0.377610 1.549537 -0.244400 -0.118639 -0.010800
-0.865567 0.018236 2.305852 -0.273396 -0.058838 -0.003087
-0.914513 0.297444 2.348344 -0.322461 -0.051964 -0.000641
-0.786609 0.508607 2.512470 -0.352275 -0.024109 0.000687
-0.897229 -0.009733 1.959228 -0.292487 -0.042724 -0.003167
-0.790606 -0.157709 2.226500 -0.269274 -0.018100 0.000392
-0.835726 -0.328624 2.173873 -0.236853 -0.026058 -0.000089
-0.795602 0.125758 2.603103 -0.291323 -0.004079 0.004005
-0.723864 0.009186 1.788952 -0.298110 0.033340 0.017280
-0.709833 0.284923 2.233938 -0.330980 0.034164 0.017317
-0.670904 0.271653 1.859938 -0.349228 0.066588 0.027636
-0.625365 0.227641 2.058210 -0.340728 0.078294 0.033277
-0.619504 0.225661 2.977267 -0.373455 0.058760 0.038097
-0.462791 -0.360170 5.028601 -0.347432 0.045844 0.042968
-0.265849 -0.701990 7.080064 -0.393783 0.033930 0.046733
-0.205681 -1.125816 9.347618 -0.464007 0.015041 0.045631
-0.305778 -1.845870 12.037608 -0.490063 0.020225 0.045017
-0.447259 -2.254009 14.421011 -0.531335 0.050176 0.041939
-0.768953 -3.180688 15.508304 -0.543102 0.111696 0.041967
-1.130763 -3.694229 16.620772 -0.579229 0.188879 0.037525
-1.501097 -4.387341 16.139026 -0.546885 0.206256 0.038635
-1.669788 -4.751877 15.862048 -0.468273 0.225462 0.040616
-2.016420 -4.247210 13.549046 -0.484733 0.199635 0.028508
-2.581088 -4.469071 11.737744 -0.384351 0.109373 0.015643
-1.905511 -4.457189 9.871182 -0.279154 0.144341 0.020890
-1.589440 -4.121542 7.994608 -0.207726 0.094893 0.027303
-1.464793 -3.224533 5.887970 -0.164606 -0.062585 0.010834
-1.249609 -3.003641 4.111609 -0.009777 -0.120582 0.018311
-0.916083 -2.278335 3.785867 0.112165 -0.182497 0.006442
-1.380833 -1.889140 2.022148 0.210160 -0.341231 -0.019634
-1.086798 -0.977788 1.550663 0.212165 -0.309675 -0.012030
-0.816423 -0.971315 0.935567 0.282959 -0.281876 -0.002591
-0.942252 -1.157955 1.119082 0.345783 -0.332352 -0.005636
-0.605905 -0.801750 0.789267 0.296877 -0.259370 0.017048
-0.712436 -0.682005 -0.014157 0.254518 -0.293385 0.020889
-0.709933 -0.783016 -0.050011 0.252260 -0.290399 0.030475
-0.380259 -1.013842 0.575363 0.263291 -0.214226 0.055082
-0.188944 -1.210329 0.805092 0.268733 -0.184245 0.067293
-0.228491 -0.913183 0.577001 0.198246 -0.193699 0.076233
-0.184880 -1.151824 0.893433 0.204346 -0.183382 0.083234
-0.438535 -1.179235 1.326986 0.195363 -0.222587 0.074725
-0.749178 -1.499152 1.470769 0.216922 -0.274393 0.056128
-0.744735 -1.262470 1.878572 0.171852 -0.266460 0.044592
-0.664005 -0.861072 1.773278 0.097536 -0.230204 0.044780
-0.626680 -0.457976 2.484812 0.028879 -0.244692 0.036514
-0.566160 -0.684314 3.833712 0.040158 -0.227276 0.035609
-0.447725 -0.665973 5.659968 0.024748 -0.167850 0.037655
-0.523947 -0.577484 6.337982 -0.046350 -0.129105 0.035384
-0.649712 -0.163721 7.854286 -0.144915 -0.101316 0.025152
-0.526095 -0.727660 9.726880 -0.117090 -0.038987 0.023727
-0.460285 -1.202694 12.007452 -0.056499 -0.012991 0.020776
-0.514516 -0.610447 12.552140 -0.147504 -0.039592 0.015138
-0.857851 0.125834 12.854232 -0.253850 -0.091515 0.011969
-1.101199 -0.303828 14.038991 -0.207414 -0.120987 0.007937
-1.019393 -1.119128 15.520156 -0.121220 -0.070549 0.014031
-1.102646 -1.072889 15.698935 -0.149813 -0.084691 0.009369
-1.146053 -0.842092 14.879701 -0.206995 -0.096536 0.011588
-1.223608 -1.175146 15.086290 -0.167444 -0.106319 0.011577
-1.008763 -1.945554 15.443071 -0.080841 -0.082049 0.011503
-1.019311 -1.983532 15.210102 -0.078924 -0.091356 0.008597
-0.894881 -1.694536 14.766618 -0.096703 -0.110381 0.004003
-0.609135 -1.644310 14.648401 -0.057291 -0.113217 0.003558
-0.432642 -1.739064 15.046280 0.011948 -0.146715 -0.007708
-0.632442 -1.530567 15.112582 -0.001049 -0.189661 -0.016473
-0.841676 -1.264613 14.872926 -0.031180 -0.212006 -0.022646
-0.932222 -1.218673 15.211694 -0.025628 -0.215659 -0.028706
-0.913983 -1.426009 15.734613 0.003021 -0.196422 -0.029295
-0.884869 -1.274873 15.846925 -0.037457 -0.183909 -0.031077
-0.959413 -1.161698 16.001009 -0.089178 -0.187981 -0.032849
-0.980577 -1.174284 16.307604 -0.122106 -0.190186 -0.032998
-0.820469 -1.263504 16.815863 -0.124881 -0.179670 -0.032549
-0.716999 -1.019155 16.948700 -0.159185 -0.190529 -0.036704
-0.588567 -0.733652 16.981676 -0.194116 -0.194573 -0.040876
-0.565988 -0.618043 17.066006 -0.208642 -0.200433 -0.044714
-0.776893 -0.625494 17.189077 -0.213800 -0.240220 -0.054231
-0.974843 -0.543456 17.067966 -0.234330 -0.268543 -0.059296
-1.075616 -0.485825 16.928511 -0.242338 -0.286554 -0.061544
-1.087357 -0.507503 16.762873 -0.229817 -0.304704 -0.063418
-1.027391 -0.492484 16.513719 -0.217712 -0.315314 -0.064559
-0.960084 -0.424554 16.198666 -0.213304 -0.320288 -0.065103
-0.925528 -0.323235 15.726438 -0.219883 -0.327560 -0.066738
-0.926777 -0.463173 15.687395 -0.188862 -0.332403 -0.067725
-0.825316 -0.320496 15.246218 -0.201923 -0.312315 -0.064201
-0.811738 -0.155952 14.769481 -0.225945 -0.314106 -0.064948
-0.875220 -0.068336 14.411818 -0.241927 -0.319244 -0.065288
-0.917727 -0.093309 14.119894 -0.244272 -0.322053 -0.064962
-1.061983 -0.071400 13.825303 -0.240180 -0.347323 -0.068194
-1.108337 0.034107 13.378484 -0.236969 -0.359811 -0.068918
-1.094818 0.071718 13.102004 -0.212212 -0.370441 -0.070121
-0.992088 0.071227 12.770777 -0.182651 -0.367671 -0.070037
-0.992902 0.040222 12.617577 -0.167082 -0.370078 -0.069553
-1.021841 0.037981 12.436747 -0.166925 -0.372772 -0.067914
-1.023849 0.001360 12.346013 -0.164877 -0.365967 -0.063732
-1.004634 -0.003973 12.315992 -0.167505 -0.354652 -0.059121
-0.984631 0.028428 12.331234 -0.174018 -0.344175 -0.055076
-0.972571 0.088635 12.239265 -0.184716 -0.336869 -0.052744
-0.966860 0.127209 12.402812 -0.187964 -0.332349 -0.053304
-0.925644 0.011011 12.790837 -0.162626 -0.326226 -0.054081
-0.824936 -0.075308 13.190371 -0.136862 -0.319599 -0.054240
-0.755800 0.069258 13.387549 -0.145299 -0.315921 -0.053365
-0.752309 0.085244 13.816418 -0.150620 -0.317930 -0.055384
-0.808002 -0.266115 14.805239 -0.149265 -0.289318 -0.054727
-0.868468 -0.455244 15.397510 -0.162343 -0.274986 -0.055726
-1.005833 -0.599911 16.181131 -0.193291 -0.263704 -0.057100
-0.989986 -0.658435 17.016039 -0.214122 -0.241080 -0.053088
-0.903668 -0.613762 17.711920 -0.231275 -0.230834 -0.050825
-0.835813 -0.515282 18.472668 -0.243721 -0.225532 -0.049050
-0.864529 -0.456538 19.335989 -0.257268 -0.227172 -0.048244
-0.874965 -0.537563 20.132432 -0.272296 -0.212218 -0.044975
-0.848563 -0.659850 20.971493 -0.291687 -0.187726 -0.043664
-0.847783 -0.563765 21.540485 -0.340423 -0.165235 -0.042696
-0.851355 -0.453391 22.322431 -0.372432 -0.168276 -0.048333
-0.883086 -0.806183 23.723935 -0.319984 -0.172699 -0.053606
-0.878104 -0.839119 24.753680 -0.327030 -0.157468 -0.055029
-1.050232 -0.977236 25.927839 -0.333629 -0.177774 -0.065194
-1.055195 -0.784739 26.337914 -0.410526 -0.136257 -0.059495
-1.078783 -0.754083 27.638420 -0.447308 -0.134669 -0.065986
-1.156910 -1.420755 29.501961 -0.372356 -0.149246 -0.071469
-1.045119 -1.854694 31.421149 -0.329081 -0.129496 -0.071494
-0.928340 -0.933875 31.557925 -0.497366 -0.115680 -0.070378
-1.165312 -0.883011 33.514457 -0.528289 -0.197292 -0.090966
-1.107658 -1.938553 36.024125 -0.414915 -0.173299 -0.090287
-0.665996 -1.664030 37.262231 -0.510111 -0.095059 -0.088329
-1.122510 -1.446131 38.761390 -0.582547 -0.188195 -0.111045
-1.276625 -1.613664 39.941554 -0.606870 -0.179622 -0.107668
-1.065125 -1.667128 42.519885 -0.625982 -0.147100 -0.115697
-1.300235 -2.498982 44.815421 -0.567721 -0.197384 -0.130361
-1.341372 -2.290806 46.086537 -0.675818 -0.205915 -0.133299
-1.322211 -2.510449 48.515523 -0.702750 -0.269041 -0.145791
-1.058094 -2.837293 49.885574 -0.701248 -0.269121 -0.140205
-0.942305 -3.150184 52.322515 -0.679371 -0.363122 -0.152676
-1.275063 -3.021514 52.804790 -0.764877 -0.459333 -0.150811
-0.957338 -2.830208 54.500245 -0.839949 -0.486600 -0.153394
-1.080980 -3.579721 56.329127 -0.786653 -0.580525 -0.159643
-0.238893 -3.528135 57.026701 -0.842734 -0.493708 -0.140697
-0.639162 -3.449415 57.846871 -0.877309 -0.657927 -0.167722
-0.752295 -3.911857 58.747216 -0.846157 -0.715050 -0.173816
-0.287324 -3.745420 58.567966 -0.887518 -0.701105 -0.169116
-0.577694 -4.041318 58.887315 -0.837344 -0.844472 -0.188155
-0.465852 -4.682540 59.013600 -0.748857 -0.909131 -0.197124
0.326772 -5.051113 58.818267 -0.709287 -0.852640 -0.190206
-0.005716 -5.184522 58.452005 -0.680997 -1.002096 -0.208968
0.491679 -4.920422 58.127155 -0.703444 -0.993045 -0.213325
0.116659 -4.658494 57.376020 -0.702470 -1.052695 -0.219683
0.222733 -4.225293 56.958194 -0.722925 -1.047583 -0.231256
-0.590823 -3.667054 56.769154 -0.741243 -1.153342 -0.251341
0.220379 -2.985200 55.651432 -0.751893 -0.999246 -0.239779
-0.348442 -2.443159 55.198210 -0.764810 -1.088131 -0.252196
-0.343339 -1.986496 54.436799 -0.768095 -1.097081 -0.260900
-0.631407 -1.730221 53.641963 -0.785824 -1.065101 -0.256106
-0.218633 -1.810875 52.952121 -0.788607 -1.007949 -0.272434
-1.073124 -1.415330 51.877706 -0.819213 -1.117254 -0.295203
-0.919505 -0.733863 50.566039 -0.850921 -1.060578 -0.296276
-0.352898 -0.100457 48.962395 -0.840817 -0.942030 -0.289663
-1.571601 0.349841 47.911340 -0.819835 -1.146733 -0.324989
-1.556191 0.612004 46.556587 -0.793885 -1.113761 -0.329204
-1.026995 1.106600 44.703098 -0.805626 -0.985531 -0.320946
-0.890816 1.376271 43.197369 -0.763080 -1.016835 -0.344580
-1.529923 1.738268 41.408582 -0.730320 -1.105458 -0.355219
-1.279897 1.859853 40.174206 -0.662143 -0.988393 -0.327800
-1.607293 1.623970 39.322656 -0.552909 -1.049413 -0.341564
-1.786594 1.958012 37.535538 -0.551295 -0.991646 -0.320117
-2.515580 2.709495 35.645898 -0.600042 -1.084441 -0.335268
-1.952293 2.862016 34.325471 -0.567175 -0.961631 -0.322310
-2.265889 2.669012 33.999902 -0.468969 -0.998658 -0.330447
-2.253182 2.752553 33.164674 -0.429724 -1.028128 -0.342587
-2.331363 3.454128 31.556824 -0.489331 -1.041761 -0.340198
-2.079918 3.718135 30.669620 -0.495936 -1.025275 -0.339237
-2.120689 3.533059 30.276921 -0.442507 -1.028507 -0.333232
-2.238861 3.142610 30.068158 -0.363316 -1.008728 -0.322006
-2.150658 3.301663 29.131471 -0.374507 -0.912696 -0.297314
-2.334240 3.304125 28.489105 -0.363767 -0.888966 -0.284360
-2.202596 2.961068 28.535036 -0.303510 -0.820568 -0.266471
-2.019778 2.486524 28.864737 -0.224100 -0.750574 -0.248250
-1.912824 2.408257 28.942453 -0.207797 -0.722585 -0.239787
-1.911207 2.516306 28.655266 -0.225958 -0.699382 -0.227767
-1.653362 2.251631 29.316421 -0.190956 -0.636327 -0.214235
-1.484860 1.881158 30.046297 -0.148404 -0.577604 -0.199076
-1.397013 1.693705 30.542074 -0.140536 -0.524272 -0.184236
-1.433584 1.689660 30.801446 -0.165540 -0.474685 -0.169174
-1.449101 1.316082 31.416063 -0.139332 -0.426761 -0.156509
-1.263450 0.482973 32.193200 -0.076586 -0.341217 -0.136580
-1.170245 0.073045 32.676912 -0.062237 -0.305269 -0.128615
-1.292357 -0.207445 32.865565 -0.091398 -0.309178 -0.123312
-1.116736 -0.624944 33.151345 -0.088689 -0.274204 -0.115824
-0.943080 -1.041473 33.734074 -0.041067 -0.252338 -0.113052
-0.939693 -1.032581 33.708571 0.000573 -0.279683 -0.118013
-0.865881 -0.609765 33.012766 -0.022785 -0.276903 -0.115571
-0.829351 -0.626803 32.463808 -0.028509 -0.272473 -0.116157
-0.996079 -1.297461 32.092137 0.022098 -0.283505 -0.118419
-0.930964 -1.442261 31.173462 0.010051 -0.269529 -0.113655
-0.883819 -1.198124 29.425634 -0.007592 -0.309769 -0.113673
-0.849897 -1.113866 28.651222 0.003179 -0.322030 -0.110699
-0.802599 -1.270746 27.626488 0.039227 -0.335534 -0.109880
-0.932005 -1.236906 26.498821 0.028312 -0.355357 -0.110962
-0.980025 -1.133050 25.184028 0.008641 -0.379960 -0.110038
-0.919807 -0.818459 23.716898 -0.014052 -0.405169 -0.105068
-0.800251 -0.577117 22.465008 -0.009129 -0.449147 -0.105698
-0.873129 -0.620518 21.827497 0.049241 -0.507441 -0.111343
-0.874892 -0.505882 20.298673 0.058985 -0.521731 -0.110967
-0.958003 -0.128366 18.839003 0.033092 -0.553963 -0.117936
-1.086200 0.024887 17.307177 0.037221 -0.583411 -0.121770
-1.028475 -0.339199 16.805684 0.132003 -0.599886 -0.123759
-0.831501 -0.709433 15.918648 0.225246 -0.593131 -0.115853
-0.795635 -0.020274 13.973335 0.166384 -0.600552 -0.107005
-1.032909 0.699256 12.177493 0.110301 -0.678912 -0.113333
-1.128580 -0.210966 12.328359 0.282615 -0.693501 -0.111246
-0.897868 -0.249758 11.208139 0.313461 -0.636974 -0.102391
-1.103056 0.852282 9.091261 0.186398 -0.676267 -0.110521
-1.556823 0.700664 8.512882 0.243283 -0.744097 -0.114932
-1.040987 0.224117 8.177945 0.335228 -0.617359 -0.085443
-1.163681 0.739088 6.937736 0.286498 -0.661443 -0.089341
-1.591893 0.979940 6.192254 0.284404 -0.735862 -0.093606
-1.236203 0.482040 5.911139 0.370173 -0.660177 -0.077835
-0.807098 0.540215 5.396790 0.384852 -0.592203 -0.069424
-1.272234 1.152535 4.040315 0.327708 -0.675441 -0.083271
-1.146994 0.879854 4.291981 0.374849 -0.646525 -0.078614
-1.016707 0.411146 4.244962 0.448722 -0.616232 -0.071227
-1.278380 1.010853 3.517388 0.370968 -0.662193 -0.073103
-1.578573 1.703416 2.159458 0.270394 -0.704161 -0.073271
-1.011368 1.233772 2.523424 0.343100 -0.605016 -0.061031
-1.146191 0.548745 3.205231 0.447963 -0.643308 -0.070932
-1.122931 0.784566 2.604824 0.407735 -0.633309 -0.066663
-1.178578 1.553793 1.220241 0.289173 -0.655792 -0.069043
-1.117145 1.112498 1.436005 0.349797 -0.646668 -0.065283
-0.814511 0.461214 1.983587 0.437270 -0.604447 -0.057107
-0.851378 0.733828 1.538495 0.394741 -0.610594 -0.050901
-0.838812 1.033002 0.935270 0.344603 -0.636465 -0.051929
-0.787814 0.707700 1.074389 0.381295 -0.621887 -0.047566
-0.755115 0.586766 0.962723 0.383789 -0.626580 -0.050727
-1.136049 0.698116 0.549850 0.349998 -0.698750 -0.064262
-1.163951 0.672334 0.340161 0.337569 -0.689389 -0.062901
-0.952543 0.438840 0.240498 0.354740 -0.654423 -0.059311
-0.997102 0.233983 0.281160 0.370933 -0.671691 -0.058847
-0.968033 0.308733 0.144409 0.356933 -0.665500 -0.054146
-0.755237 0.318004 -0.074385 0.345734 -0.625978 -0.045330
-0.833327 0.167923 0.030207 0.362943 -0.657877 -0.052966
-0.788296 0.131236 0.029562 0.362330 -0.643992 -0.050712
-0.714779 0.228636 -0.119333 0.344721 -0.630662 -0.051018
-0.748592 0.182821 -0.166959 0.346406 -0.639662 -0.053830
-0.922644 0.024870 -0.009838 0.354753 -0.664275 -0.057476
-0.882956 -0.060797 -0.023916 0.338047 -0.653786 -0.057233
-0.958364 -0.064320 0.008520 0.310702 -0.653206 -0.057968
-0.924319 -0.138002 0.095260 0.301416 -0.644739 -0.058823
-1.087136 -0.355076 0.381111 0.322433 -0.667974 -0.062885
-0.830907 -0.408429 0.388823 0.323814 -0.615843 -0.056268
-0.893201 -0.355863 0.552807 0.320370 -0.638893 -0.063249
-0.842673 -0.341294 0.650982 0.322766 -0.632427 -0.062448
-0.764230 -0.456433 0.909026 0.345403 -0.620830 -0.061384
-0.759129 -0.552158 1.189252 0.367371 -0.625806 -0.063630
-0.822291 -0.468538 1.430228 0.363559 -0.622172 -0.063624
-0.854022 -0.614338 1.824460 0.380844 -0.619363 -0.065304
-0.893009 -0.716600 2.258254 0.384891 -0.608913 -0.066389
-0.982229 -0.743508 2.698436 0.368238 -0.595748 -0.068319
-1.051616 -0.670018 3.019159 0.342117 -0.587657 -0.071540
-1.138990 -0.711480 3.572012 0.328997 -0.580774 -0.071809
-1.058845 -0.666550 4.146647 0.310506 -0.558637 -0.067882
-1.033415 -0.652341 4.952662 0.307485 -0.568292 -0.069770
-0.841883 -0.552263 5.534217 0.291436 -0.540989 -0.060631
-0.646971 -0.026071 5.819783 0.213583 -0.522306 -0.053448
-0.700672 -0.022166 6.849004 0.212905 -0.541891 -0.055057
-0.617379 -0.298406 7.915608 0.232404 -0.512269 -0.045210
-0.604861 -0.418030 9.063248 0.225326 -0.511389 -0.045745
-0.754095 -0.365955 10.011307 0.185491 -0.515903 -0.049370
-0.690758 -0.032994 10.221950 0.098549 -0.456108 -0.043570
-0.839244 0.028205 11.908416 0.078254 -0.452228 -0.053481
-0.795860 -0.892427 14.479399 0.178634 -0.390405 -0.054800
-0.858166 -0.797550 15.360792 0.111807 -0.298736 -0.045448
-1.045835 0.185446 16.219662 -0.079117 -0.257635 -0.052116
-1.355038 -0.640882 19.371490 -0.009791 -0.233984 -0.057768
-0.833381 -1.238539 21.936570 0.017926 -0.073960 -0.037858
-1.051957 -1.180286 24.811627 -0.016836 -0.096560 -0.040767
-1.046763 -0.381568 26.383127 -0.185001 -0.052897 -0.020853
-0.892162 -0.694383 29.589737 -0.209196 0.021108 -0.002439
-0.957184 -1.504729 33.959944 -0.166963 0.061231 -0.003081
-1.244992 -1.783330 36.378761 -0.243409 0.092188 -0.004815
-1.454110 -1.978734 39.360572 -0.315926 0.152410 -0.006829
-1.405216 -1.559141 41.741250 -0.448090 0.212959 -0.006623
-1.744992 -2.606895 44.760716 -0.390307 0.200783 -0.003926
-1.324546 -2.651712 46.598794 -0.497648 0.256874 0.001426
-1.370254 -3.723016 48.712325 -0.540521 0.243507 0.000386
-1.151428 -4.097125 49.938883 -0.602975 0.254677 -0.003876
-1.169427 -5.328806 52.069494 -0.575100 0.221773 -0.010329
-0.782339 -5.650556 52.775069 -0.645006 0.195504 -0.027235
-0.957664 -6.029275 54.971683 -0.613526 0.083563 -0.049584
-0.965042 -6.063619 55.215916 -0.659520 0.032501 -0.057908
-0.928912 -5.993332 56.668118 -0.733351 -0.004641 -0.071011
-1.150130 -7.009137 59.322849 -0.652144 -0.132410 -0.096816
-0.709298 -7.022049 60.490988 -0.700340 -0.104040 -0.092220
-0.833868 -7.092146 62.461510 -0.714117 -0.263663 -0.128188
-0.632174 -7.452275 64.022806 -0.751827 -0.274872 -0.124507
-0.530497 -7.246339 64.935866 -0.890607 -0.403401 -0.146818
-0.310129 -7.152172 65.939223 -0.956175 -0.531743 -0.159630
-0.093610 -7.457304 66.586654 -0.903821 -0.697339 -0.178728
0.394366 -6.711240 65.859796 -1.002753 -0.741297 -0.175162
0.301702 -6.147258 64.641020 -1.081604 -0.880886 -0.196636
0.416725 -6.344195 63.789241 -1.052089 -0.925604 -0.206199
0.571735 -6.040115 62.101595 -1.057183 -0.942237 -0.223523
0.613802 -4.990672 59.542787 -1.079925 -1.014174 -0.246856
-0.063524 -4.069949 57.124888 -1.037843 -1.188580 -0.278781
0.234826 -3.778700 55.858807 -0.895250 -1.113737 -0.268088
0.731995 -3.300665 53.837439 -0.810873 -1.020551 -0.254065
-0.653602 -1.949405 51.270195 -0.893340 -1.282054 -0.294855
-0.436666 -1.276411 49.326726 -0.938348 -1.167301 -0.280814
-0.309912 -1.894077 49.192434 -0.766226 -1.100465 -0.287820
-0.497017 -1.488549 48.340665 -0.696975 -1.128509 -0.300899
-1.791306 0.676920 45.197183 -0.843641 -1.323674 -0.325367
-1.284053 1.515042 44.332543 -0.795220 -1.210029 -0.317265
-1.530815 1.092842 44.395908 -0.595346 -1.215666 -0.311433
-1.696941 1.864025 42.400266 -0.601978 -1.258022 -0.317515
-1.877653 2.860364 40.669827 -0.617701 -1.275173 -0.311857
-1.827004 2.917118 39.123285 -0.477186 -1.285207 -0.310327
-1.729955 2.984256 37.494227 -0.341097 -1.281373 -0.310162
-2.112200 3.279402 35.887695 -0.255730 -1.353461 -0.323973
-2.326759 3.612874 32.580321 -0.218089 -1.355795 -0.318127
-2.252287 3.646041 30.632100 -0.161903 -1.397900 -0.334595
-2.343260 3.125233 29.130349 -0.018389 -1.402007 -0.328535
-2.313654 3.512462 26.713148 0.022238 -1.433229 -0.327000
-2.796588 4.442337 24.723307 0.036455 -1.552539 -0.337657
-2.557126 4.366809 22.582206 0.149423 -1.467356 -0.312022
-2.462137 4.572172 20.601538 0.164896 -1.415802 -0.302561
-2.586049 3.980512 19.520257 0.268935 -1.416176 -0.304154
-2.312593 3.645369 18.055218 0.315252 -1.299858 -0.276799
-2.131561 3.964447 15.757738 0.292798 -1.264539 -0.267485
-2.323893 3.339279 15.130487 0.427238 -1.296541 -0.263480
-1.894091 3.429920 13.022320 0.447688 -1.149517 -0.221158
-1.930643 3.756550 11.670407 0.403383 -1.147458 -0.219047
-2.172718 3.304862 10.671139 0.456068 -1.149316 -0.216478
-1.882257 2.486035 10.407877 0.544260 -1.004569 -0.187399
-1.720174 2.699659 8.564713 0.482447 -0.948923 -0.176733
-2.119952 2.895568 7.294407 0.450462 -1.010444 -0.177708
-1.766655 2.135171 7.082262 0.550279 -0.932643 -0.152322
-1.080050 1.977302 6.266575 0.551058 -0.810144 -0.124247
-0.990316 2.472295 4.428570 0.436420 -0.802701 -0.117047
-1.163442 2.110659 3.952597 0.446228 -0.792799 -0.111462
-0.981228 0.933614 4.325511 0.563110 -0.724193 -0.102592
-0.876090 0.905438 3.525537 0.511705 -0.657044 -0.090360
-1.651783 1.392376 1.723491 0.387911 -0.789230 -0.107879
-1.202101 1.407156 1.164463 0.350555 -0.697084 -0.086182
-1.119203 0.322842 2.005932 0.475785 -0.698381 -0.086663
-1.081628 -0.037639 1.818449 0.490242 -0.693650 -0.077873
-1.428321 0.940418 0.108139 0.313068 -0.733411 -0.075872
-0.871805 0.773887 -0.457866 0.294823 -0.652206 -0.065126
-1.348550 -0.178836 0.477578 0.407657 -0.706911 -0.069031
-0.718138 -0.245484 0.491156 0.399010 -0.598475 -0.055518
-0.908660 0.235450 -0.298742 0.319086 -0.609994 -0.055466
-1.045460 0.055220 -0.404659 0.328454 -0.635062 -0.057663
-0.838272 -0.135888 -0.188206 0.349459 -0.587339 -0.048643
-1.117589 -0.161475 -0.172140 0.346960 -0.639867 -0.052431
-1.066022 -0.131231 0.172132 0.330847 -0.620703 -0.043981
-0.752111 -0.036608 0.092673 0.306428 -0.581922 -0.040115
-1.070381 -0.041807 0.630370 0.312940 -0.630774 -0.044347
-1.032846 -0.396592 1.180947 0.355586 -0.651253 -0.053915
-0.811428 -0.380941 1.592116 0.332496 -0.560784 -0.034591
-1.347356 -0.312656 1.918853 0.305701 -0.670931 -0.057723
-1.090613 -0.435641 2.469187 0.294899 -0.582587 -0.038157
-0.670498 -0.256941 3.122189 0.259549 -0.490839 -0.020921
-0.780984 -0.304257 4.273450 0.277778 -0.541562 -0.021403
-0.951221 -0.148973 5.133250 0.277353 -0.614148 -0.021127
-0.535723 0.472470 5.953940 0.219556 -0.537416 0.005712
-0.531113 0.441313 7.088715 0.239626 -0.612560 -0.007798
-0.751752 0.350931 8.482566 0.242686 -0.598413 0.007184
-0.225714 0.797243 8.722713 0.139974 -0.516722 0.013716
-0.871354 0.428779 10.238337 0.151778 -0.600027 0.001953
-0.745147 -0.286324 11.861741 0.225209 -0.559318 0.005538
-0.595413 -0.631797 13.045097 0.275131 -0.499860 0.019411
-0.761387 -0.135793 12.896299 0.196679 -0.542885 0.012914
-0.704644 0.411781 12.948979 0.089297 -0.489225 0.025264
-0.385881 -0.270808 14.228988 0.145280 -0.414814 0.027068
-0.840178 -1.136021 15.198359 0.154433 -0.409924 0.019997
-0.883826 -1.075278 15.144237 0.121758 -0.404135 0.019947
-0.961053 -1.174998 15.066248 0.094935 -0.407893 0.018136
-0.917827 -1.871886 15.510429 0.131042 -0.418974 0.012545
-0.825051 -2.074874 16.067882 0.142068 -0.433912 0.008451
-0.740092 -2.183595 16.283577 0.158657 -0.475147 0.001622
-0.631524 -2.029226 16.530807 0.165159 -0.496989 -0.001176
-0.584515 -2.079118 16.774054 0.187724 -0.511466 -0.005061
-0.513256 -2.180835 17.132434 0.192950 -0.487113 -0.006431
-0.601563 -2.200826 17.145745 0.165769 -0.479971 -0.012018
-0.655094 -2.479006 17.394562 0.158629 -0.455691 -0.018759
-0.671521 -2.637243 17.439469 0.147346 -0.437971 -0.025266
-0.758044 -2.626654 17.351228 0.133032 -0.444602 -0.033211
-0.844827 -2.393556 17.002425 0.110580 -0.470129 -0.042091
-0.850336 -2.208499 16.823065 0.102563 -0.482476 -0.046811
-0.928062 -2.148917 16.731572 0.101556 -0.499315 -0.052611
-0.937544 -1.938947 16.382281 0.066113 -0.505497 -0.057250
-1.043440 -1.661413 15.975420 0.020139 -0.535783 -0.063907
-1.110349 -1.642835 15.806300 0.017748 -0.565516 -0.068763
-1.077555 -1.753428 15.676214 0.036891 -0.579006 -0.070022
-1.107106 -1.652476 15.616477 0.027286 -0.602681 -0.073269
-1.135104 -1.429401 15.254516 -0.000222 -0.617823 -0.072249
-0.998778 -1.297623 15.001712 -0.007447 -0.609979 -0.068363
-0.910390 -1.227145 14.981036 0.001511 -0.609606 -0.067218
-0.883860 -0.991883 14.766363 -0.011890 -0.612799 -0.064728
-0.885555 -0.582897 14.351753 -0.048710 -0.612393 -0.061301
-0.930594 -0.389834 14.211780 -0.053602 -0.613771 -0.058781
-0.885082 -0.344334 14.160412 -0.039440 -0.604207 -0.055929
-0.821315 -0.160802 13.994963 -0.046445 -0.594763 -0.054128
-0.878747 -0.062142 13.799098 -0.047961 -0.612018 -0.056640
-0.918350 -0.023337 13.653751 -0.049900 -0.616961 -0.056349
-0.972739 -0.107015 13.574953 -0.041569 -0.624336 -0.056950
-1.064253 -0.116944 13.503340 -0.045028 -0.635912 -0.057974
-1.103378 -0.105831 13.381286 -0.051374 -0.643761 -0.058377
-1.093437 -0.015659 13.211681 -0.065239 -0.645083 -0.057564
-1.067656 0.039218 13.100182 -0.071808 -0.640255 -0.055513
-1.070286 0.098066 13.028799 -0.076884 -0.642651 -0.055526
-1.088070 0.170237 12.852869 -0.086485 -0.642953 -0.054703
-1.081960 0.184481 12.724924 -0.088409 -0.635826 -0.053989
-1.065206 0.160150 12.580072 -0.087629 -0.621931 -0.052719
-1.062982 0.117605 12.457025 -0.084970 -0.613046 -0.053631
-1.072713 0.112216 12.274917 -0.086673 -0.601726 -0.052925
-1.095705 0.075745 12.050332 -0.085532 -0.602841 -0.053093
-1.124593 0.067156 11.901317 -0.085127 -0.608854 -0.051589
-1.178512 0.016302 11.802433 -0.076721 -0.632269 -0.050854
-1.184206 -0.081253 11.786010 -0.057378 -0.660577 -0.050964
-1.173213 -0.120577 11.812619 -0.040304 -0.679873 -0.050017
-1.132545 -0.081191 11.821143 -0.031684 -0.695634 -0.051978
-1.174672 -0.003923 11.934453 -0.022393 -0.716585 -0.054103
-1.001653 0.015977 12.420289 0.011478 -0.717281 -0.055377
-0.844299 0.124129 12.939354 0.042376 -0.712655 -0.050314
-0.773840 0.273167 13.332026 0.041292 -0.724475 -0.045857
-0.732939 0.378224 13.853526 0.000310 -0.712085 -0.041294
-0.791009 0.066498 14.731599 -0.021513 -0.675274 -0.038981
-0.934181 -0.399067 16.048949 -0.028379 -0.649492 -0.042466
-1.018394 -0.564404 17.103341 -0.043274 -0.616489 -0.043014
-0.939981 -0.473248 17.971582 -0.057249 -0.585072 -0.044822
-0.991690 -0.340201 18.838645 -0.065659 -0.583324 -0.048571
-1.110596 -0.465002 19.706961 -0.063249 -0.572899 -0.051096
-1.158970 -0.542889 20.454230 -0.100329 -0.534988 -0.052657
-1.191580 -0.690059 21.070105 -0.136893 -0.502935 -0.056698
-1.212215 -1.043770 22.025518 -0.117636 -0.487577 -0.060731
-1.103275 -1.192971 22.553569 -0.100433 -0.468029 -0.060713
-1.035838 -0.936372 22.788800 -0.134383 -0.459912 -0.061759
-1.071734 -0.848355 23.242181 -0.147743 -0.473769 -0.065472
-1.047571 -1.247663 24.070942 -0.106816 -0.459478 -0.065916
-0.988611 -1.408421 24.610538 -0.113447 -0.432386 -0.067409
-1.077702 -1.422274 24.934860 -0.154359 -0.424818 -0.071496
-1.156238 -1.494856 25.305939 -0.162345 -0.428005 -0.072570
-1.085934 -1.674439 25.785373 -0.144884 -0.419828 -0.070337
-1.030291 -1.664539 26.221522 -0.148214 -0.426499 -0.072257
-1.020945 -1.535652 26.413599 -0.171536 -0.439936 -0.074076
-0.967358 -1.476066 26.604500 -0.190377 -0.443080 -0.075113
-0.847827 -1.618678 26.942745 -0.183719 -0.434844 -0.076375
-0.797287 -1.610346 27.131958 -0.195983 -0.427490 -0.076110
-0.788630 -1.582334 27.209663 -0.205557 -0.431612 -0.077328
-0.785483 -1.574696 27.333487 -0.204407 -0.432185 -0.077082
-0.755431 -1.657704 27.575698 -0.190497 -0.430858 -0.078589
-0.818484 -1.693722 27.663166 -0.186744 -0.448506 -0.082624
-0.886373 -1.670079 27.635131 -0.197111 -0.463411 -0.086722
-0.913761 -1.674169 27.766973 -0.198378 -0.476712 -0.091746
-0.934723 -1.720955 27.886054 -0.189661 -0.493298 -0.095794
-0.933254 -1.657814 27.955348 -0.192654 -0.510004 -0.099443
-0.934073 -1.477692 27.898718 -0.210874 -0.521537 -0.100958
-0.939552 -1.375650 27.881874 -0.221865 -0.531914 -0.102940
-0.927049 -1.369495 27.996678 -0.222279 -0.528699 -0.103028
-0.953786 -1.290950 28.088927 -0.233656 -0.528961 -0.104189
-0.958852 -1.200622 28.145266 -0.241505 -0.528029 -0.105039
-0.982333 -1.087706 28.200015 -0.251059 -0.530570 -0.107041
-1.018350 -1.094302 28.345726 -0.246107 -0.542476 -0.112063
-1.055479 -1.001788 28.421295 -0.254512 -0.548152 -0.114107
-1.046910 -0.930163 28.509062 -0.251713 -0.558841 -0.117558
-1.076721 -0.785001 28.579166 -0.250606 -0.574381 -0.119907
-1.079550 -0.693979 28.603509 -0.248283 -0.585628 -0.121999
-1.121402 -0.593222 28.613801 -0.257229 -0.593672 -0.123162
-1.139691 -0.558663 28.617848 -0.266721 -0.593256 -0.123069
-1.165667 -0.549448 28.667011 -0.268333 -0.592941 -0.121927
-1.106169 -0.477028 28.755165 -0.268589 -0.577556 -0.116494
-1.060148 -0.405512 28.760417 -0.269194 -0.566292 -0.111835
-1.029413 -0.369188 28.878750 -0.273165 -0.554329 -0.108982
-1.029800 -0.495077 29.059040 -0.261585 -0.550710 -0.109144
-1.010049 -0.547827 29.362025 -0.249143 -0.542323 -0.108481
-0.974984 -0.533860 29.565553 -0.231450 -0.543352 -0.108528
-0.986851 -0.425776 29.723711 -0.224126 -0.548484 -0.108289
-1.009612 -0.401772 29.888281 -0.220894 -0.552613 -0.108788
-1.043034 -0.458718 30.105507 -0.220199 -0.551625 -0.109496
-1.073002 -0.539821 30.346296 -0.217448 -0.555091 -0.111289
-1.075172 -0.556989 30.493288 -0.212357 -0.557603 -0.112127
-1.046930 -0.445030 30.509591 -0.216613 -0.554805 -0.111645
-1.037604 -0.427304 30.625256 -0.209525 -0.554408 -0.111879
-1.019762 -0.416211 30.646521 -0.212092 -0.543641 -0.110395
-1.006451 -0.480055 30.723707 -0.207400 -0.539076 -0.110970
-0.988472 -0.524105 30.721676 -0.204289 -0.532842 -0.110349
-0.985052 -0.540127 30.662943 -0.200909 -0.537157 -0.111711
-1.015638 -0.519534 30.587214 -0.199194 -0.549793 -0.113743
-1.010291 -0.494812 30.439839 -0.198042 -0.558535 -0.115166
-1.039749 -0.507084 30.332949 -0.190756 -0.576529 -0.117759
-1.017733 -0.505597 30.197294 -0.186718 -0.585071 -0.119073
-0.986432 -0.437475 30.034885 -0.189176 -0.593809 -0.120237
-0.978687 -0.320018 29.579416 -0.199722 -0.605258 -0.120816
-1.004434 -0.375552 29.473647 -0.187075 -0.621835 -0.123997
-1.005310 -0.388591 29.131634 -0.194579 -0.618083 -0.122894
-1.027809 -0.389663 28.690612 -0.212805 -0.624021 -0.124863
-1.116682 -0.460685 28.145845 -0.223359 -0.634772 -0.127574
-1.087062 -0.536735 27.781324 -0.206555 -0.624688 -0.127641
-1.110001 -0.490867 27.210700 -0.171450 -0.642241 -0.130756
-1.106514 -0.235146 26.082284 -0.159176 -0.656665 -0.131602
-1.154313 -0.018491 24.955242 -0.158835 -0.664610 -0.131645
-1.208062 0.019638 23.768609 -0.147261 -0.671328 -0.130606
-1.243435 -0.205184 22.783758 -0.097327 -0.685761 -0.131109
-1.241874 -0.256057 21.412602 -0.078653 -0.665630 -0.124807
-1.262307 -0.028203 19.872946 -0.093154 -0.663097 -0.122866
-1.340716 -0.008379 18.592033 -0.059522 -0.695581 -0.121119
-1.189011 -0.227062 17.670562 0.014393 -0.711076 -0.114697
-0.985724 -0.190093 16.501590 0.044467 -0.728210 -0.109558
-0.993361 0.329791 14.752732 -0.005394 -0.774476 -0.110290
-1.055651 0.409189 13.706547 0.013776 -0.821128 -0.114744
-1.008117 0.209750 13.000374 0.070043 -0.830384 -0.116720
-1.061711 0.071957 12.477660 0.125693 -0.855985 -0.125191
-1.069484 0.375719 11.349909 0.111267 -0.861409 -0.125353
-1.121090 0.894586 9.929602 0.071760 -0.869106 -0.118528
-1.209839 0.751089 9.226197 0.111329 -0.889849 -0.117812
-1.240988 0.561085 9.009881 0.155474 -0.867103 -0.112439
-1.298783 0.580777 8.497333 0.164359 -0.845900 -0.107875
-1.419611 0.602598 8.099705 0.175629 -0.847248 -0.107427
-1.237210 0.633060 7.733560 0.189014 -0.792209 -0.095645
-1.183665 0.791900 7.514755 0.177826 -0.790182 -0.095925
-1.289768 0.914926 7.555819 0.179953 -0.816567 -0.096412
-1.335587 1.001226 8.113952 0.200941 -0.819676 -0.092623
-1.296613 1.135912 8.439058 0.206406 -0.787764 -0.084139
-1.264203 1.436644 8.643511 0.160231 -0.752263 -0.081514
-1.367376 1.341930 9.316201 0.137809 -0.713471 -0.078714
-1.327682 0.977081 10.161503 0.122414 -0.647288 -0.072613
-1.390325 0.699650 11.266097 0.114752 -0.624526 -0.071887
-1.116923 0.647800 12.442252 0.109036 -0.588283 -0.060211
-0.908225 0.777348 12.846276 0.103618 -0.568622 -0.052507
-0.660381 0.941460 13.604255 0.102289 -0.552579 -0.041116
-0.587329 0.786989 14.555687 0.114659 -0.558521 -0.037064
-0.568392 0.433247 15.598169 0.123422 -0.524778 -0.031609
-0.754375 0.123019 16.541316 0.110656 -0.519041 -0.036245
-0.922178 0.027982 17.461531 0.091293 -0.505372 -0.036640
-0.875645 0.005701 18.323453 0.081435 -0.471733 -0.034754
-0.924428 -0.122961 19.368480 0.079509 -0.441719 -0.034621
-0.900025 0.066874 20.091507 0.001129 -0.379768 -0.033232
-1.018732 -0.297166 21.619962 -0.010487 -0.343121 -0.039899
-0.969358 -1.079309 23.932160 0.031350 -0.298713 -0.045951
-0.884716 -1.162771 25.210411 -0.022198 -0.247910 -0.043571
-0.828747 -0.547407 26.132543 -0.155064 -0.227940 -0.041001
-0.943881 -0.914250 28.706627 -0.124923 -0.259585 -0.045899
-0.914235 -1.737199 31.059285 -0.074492 -0.204921 -0.033445
-0.780439 -1.332080 32.864430 -0.232033 -0.132089 -0.029713
-1.541763 -1.823198 35.317492 -0.257795 -0.212358 -0.046590
-1.147923 -2.187547 37.344025 -0.283674 -0.087505 -0.033410
-1.088423 -2.339361 39.425931 -0.296004 -0.068382 -0.036772
-1.204177 -2.774053 41.211570 -0.314626 -0.096110 -0.042958
-1.023876 -2.369600 41.939773 -0.468821 -0.065551 -0.040485
-1.018328 -3.231096 43.832339 -0.421072 -0.095950 -0.053621
-1.008726 -4.330815 45.573204 -0.350376 -0.122806 -0.062294
-0.864308 -4.062264 46.126236 -0.493389 -0.149696 -0.068449
-0.756030 -4.276440 46.502378 -0.527291 -0.185012 -0.075995
-0.592448 -4.877144 48.025673 -0.478745 -0.216838 -0.086611
-0.517937 -5.200266 48.702765 -0.456772 -0.265221 -0.097971
-0.629678 -4.582878 48.343114 -0.544005 -0.336795 -0.111053
-0.984636 -4.405937 48.546397 -0.557336 -0.438305 -0.126302
-0.806575 -5.033502 49.392598 -0.472146 -0.447253 -0.130284
-0.552637 -5.191923 49.638259 -0.459277 -0.448525 -0.132488
-0.738979 -4.717339 49.091750 -0.531694 -0.531224 -0.147622
-0.640169 -4.296913 48.547109 -0.568535 -0.549649 -0.153841
-0.496134 -4.363172 48.553062 -0.496445 -0.562215 -0.160739
-0.755811 -4.027805 48.653152 -0.480808 -0.638314 -0.174436
-0.539410 -3.252288 47.798242 -0.566025 -0.620775 -0.166878
-0.479494 -2.863674 47.406733 -0.636636 -0.646422 -0.166220
-0.455606 -3.034629 47.678522 -0.632157 -0.685691 -0.170178
-0.627538 -2.549818 47.523376 -0.682646 -0.711030 -0.168643
-0.773214 -1.861781 46.630437 -0.726630 -0.760716 -0.183878
-1.039096 -1.239157 46.106886 -0.747674 -0.818558 -0.202335
-0.968816 -1.151745 45.688484 -0.735685 -0.804033 -0.208786
-0.932894 -1.219691 45.505353 -0.705173 -0.820900 -0.222053
-0.975940 -1.090971 44.634598 -0.682475 -0.822916 -0.221445
-0.816815 -0.379006 43.088277 -0.712684 -0.793960 -0.217189
-1.108853 -0.002605 42.029293 -0.679728 -0.843782 -0.227144
-1.145119 0.156811 40.759578 -0.630638 -0.824994 -0.225247
-0.974196 0.400309 39.412728 -0.600372 -0.791537 -0.226556
-1.176829 0.561162 37.778291 -0.565581 -0.854633 -0.242558
-1.280119 0.846654 35.877242 -0.554807 -0.883982 -0.244342
-1.497777 1.224289 34.444264 -0.551304 -0.945039 -0.253570
-1.737814 1.552897 32.887408 -0.538043 -0.997115 -0.254760
-1.667687 1.582737 32.276308 -0.471408 -1.004801 -0.249656
-1.614132 1.762460 31.599925 -0.408838 -1.020205 -0.242957
-1.462450 2.155816 30.432266 -0.395428 -1.012975 -0.233737
-1.620555 2.610625 29.195758 -0.407349 -1.047176 -0.233732
-1.684270 2.566346 28.638836 -0.375723 -1.041828 -0.227550
-1.697707 2.282608 28.142179 -0.320886 -1.034931 -0.219876
-1.450546 2.406261 27.052804 -0.326875 -0.996228 -0.209022
-1.393667 2.552618 26.066797 -0.337054 -1.001177 -0.205828
-1.392861 2.259454 25.602405 -0.297812 -1.006933 -0.203145
-1.375290 2.037007 25.062082 -0.274027 -0.989371 -0.196428
-1.658873 2.229023 24.159166 -0.281937 -1.020468 -0.194777
-1.756902 2.466752 23.331869 -0.258343 -1.028862 -0.187758
-1.568000 2.382615 23.187398 -0.175293 -0.973164 -0.172087
-1.431674 2.023134 22.904156 -0.099635 -0.920786 -0.163274
-1.611852 1.970345 22.504610 -0.108553 -0.883577 -0.154640
-1.633734 1.803352 22.000843 -0.120453 -0.831514 -0.143504
-1.589566 1.349390 21.936704 -0.080857 -0.791272 -0.132200
-1.364315 1.109199 21.989131 -0.048509 -0.741978 -0.117151
-1.176422 1.168304 21.780850 -0.046050 -0.717219 -0.108103
-1.109553 1.211167 21.622865 -0.042288 -0.690999 -0.098283
-1.154833 1.172177 21.571975 -0.042799 -0.677581 -0.094504
-1.383005 0.997294 21.542281 -0.036443 -0.680475 -0.091514
-1.424323 0.708503 21.524220 -0.016901 -0.677773 -0.089729
-1.352822 0.486637 21.381482 -0.004296 -0.667347 -0.084149
-1.218514 0.370949 20.901474 -0.002022 -0.661222 -0.080208
-1.115870 0.300018 20.362477 0.003609 -0.653403 -0.075213
-0.981304 0.103932 19.796889 0.025304 -0.638805 -0.067434
-0.881153 -0.043389 19.295721 0.041348 -0.613863 -0.060257
-0.883890 -0.109617 18.507684 0.032392 -0.592973 -0.053443
-0.854147 -0.253842 17.693291 0.030678 -0.578801 -0.051631
-0.881619 -0.275452 16.935814 0.030930 -0.574925 -0.050287
-0.881209 -0.261687 16.095504 0.028138 -0.585722 -0.050740
-0.961014 -0.235230 15.258864 0.030796 -0.619901 -0.055935
-0.977858 -0.419913 14.529510 0.051644 -0.638672 -0.057387
-0.927791 -0.516423 13.563567 0.058320 -0.650387 -0.059707
-0.910753 -0.416613 12.687836 0.042672 -0.656415 -0.059183
-0.870298 -0.662500 12.235621 0.088964 -0.670738 -0.061331
-0.872874 -0.863416 11.630338 0.127985 -0.666738 -0.058011
-0.892036 -0.683548 10.826119 0.115218 -0.665029 -0.059128
-1.099267 -0.542207 10.032405 0.111151 -0.687501 -0.063725
-1.062458 -0.720621 9.762917 0.154354 -0.664347 -0.061694
-1.006735 -0.718107 9.241803 0.166050 -0.643229 -0.061122
-1.136469 -0.287329 8.206972 0.115351 -0.661967 -0.065650
-1.275510 -0.089070 7.681053 0.110305 -0.689290 -0.067474
-1.169922 -0.237294 7.537478 0.158249 -0.673154 -0.059052
-1.147767 -0.344220 7.322810 0.202361 -0.693713 -0.061285
-1.196406 -0.037095 6.849567 0.181751 -0.701615 -0.062074
-1.122455 0.113851 6.409492 0.178224 -0.683260 -0.061666
-1.192510 0.093075 6.276578 0.196455 -0.689341 -0.066438
-1.162355 0.016624 6.341754 0.218291 -0.672651 -0.065340
-1.214827 0.191429 6.336606 0.199293 -0.669408 -0.062596
-1.212992 0.493160 6.136765 0.160657 -0.667649 -0.059545
-1.231171 0.667962 6.273799 0.145587 -0.656264 -0.055530
-1.203707 0.731438 6.507921 0.148324 -0.630542 -0.051928
-1.291404 0.787002 6.707623 0.151175 -0.635015 -0.056497
-1.311119 1.009363 6.739726 0.127021 -0.615753 -0.054767
-1.267346 0.886247 6.945752 0.137909 -0.610502 -0.056629
-1.292131 0.767060 7.187557 0.136732 -0.613406 -0.055635
-1.307557 0.584450 7.497759 0.137998 -0.611523 -0.050720
-1.259050 0.452199 7.699680 0.131439 -0.604402 -0.044448
-1.247071 0.382415 7.846150 0.132809 -0.627775 -0.044313
-1.114695 0.339917 7.925493 0.137063 -0.623023 -0.040060
-0.996528 0.324294 7.930320 0.136185 -0.621533 -0.040969
-1.093133 0.368562 7.978932 0.126536 -0.644520 -0.045337
-0.991121 0.216473 7.970522 0.134457 -0.624271 -0.042144
-1.030913 0.059971 8.032470 0.140464 -0.629100 -0.043653
-1.051027 -0.020968 7.947774 0.142829 -0.622537 -0.042608
-1.005988 -0.066598 7.763812 0.149481 -0.600648 -0.036667
-0.917102 -0.075712 7.485589 0.174292 -0.594301 -0.035303
-0.999757 -0.116018 7.265292 0.201462 -0.609685 -0.034920
-0.924302 -0.096791 6.976327 0.209195 -0.592327 -0.033115
-1.007337 -0.117723 6.749852 0.209863 -0.595058 -0.034438
-1.077044 -0.278712 6.717409 0.224887 -0.607898 -0.038886
-1.001475 -0.376925 6.708865 0.233944 -0.596304 -0.037376
-0.885920 -0.431870 6.782093 0.243985 -0.596160 -0.036903
-0.902341 -0.418499 6.706804 0.244053 -0.624490 -0.039375
-0.822629 -0.534615 7.099568 0.260117 -0.624956 -0.038917
-0.727468 -0.633050 7.612194 0.270665 -0.609668 -0.036107
-0.767113 -0.647197 8.022377 0.271319 -0.617761 -0.037699
-0.809846 -0.624843 8.276434 0.269906 -0.616770 -0.038652
-0.818678 -0.582418 8.821029 0.270799 -0.594924 -0.038414
-0.975089 -0.736677 9.346709 0.283401 -0.603373 -0.042985
-1.024455 -0.804661 9.885451 0.270203 -0.588727 -0.045296
-1.120638 -0.889462 10.438525 0.239139 -0.581884 -0.048719
-1.130582 -1.028896 11.066015 0.211063 -0.578721 -0.051095
-1.085895 -1.108381 11.791933 0.193122 -0.586139 -0.051893
-0.920043 -0.960568 12.346176 0.164990 -0.584154 -0.048713
-0.738712 -0.784928 13.300786 0.149721 -0.599154 -0.046301
-0.703165 -0.719950 13.788800 0.141406 -0.601055 -0.045537
-0.695193 -0.790351 14.582274 0.127293 -0.586567 -0.044532
-0.732498 -0.766386 15.209300 0.082529 -0.569657 -0.045004
-0.923004 -0.850226 16.040357 0.059058 -0.570091 -0.047209
-0.938564 -1.190248 17.405879 0.090551 -0.555966 -0.046272
-0.859627 -1.072762 18.245234 0.071972 -0.528879 -0.042892
-0.910299 -0.918709 19.259557 0.040936 -0.520864 -0.045435
-0.962180 -1.136865 20.661729 0.033206 -0.480567 -0.044940
-0.868307 -1.109196 21.704791 -0.025164 -0.410708 -0.041030
-0.951624 -1.067837 23.356364 -0.076496 -0.382807 -0.049388
-1.066883 -1.293727 25.227717 -0.080491 -0.358452 -0.051432
-1.010078 -1.597279 27.656828 -0.062707 -0.312817 -0.053253
-1.175055 -0.744648 29.981594 -0.264879 -0.271320 -0.048133
-1.239528 -0.784774 30.837380 -0.275098 -0.274079 -0.047080
-1.329689 -1.653092 33.484780 -0.185116 -0.270660 -0.046894
-0.965535 -1.739592 34.989624 -0.245410 -0.144570 -0.028996
-1.254530 -1.303272 36.429015 -0.352293 -0.164990 -0.044040
-1.509466 -2.110253 39.270146 -0.297302 -0.145087 -0.050983
-1.359467 -2.492679 40.532867 -0.287330 -0.074523 -0.042416
-1.029841 -2.205280 41.843557 -0.387236 -0.051002 -0.047069
-1.271371 -2.390165 43.039277 -0.431753 -0.151122 -0.058043
-0.768855 -3.066829 44.798348 -0.395560 -0.117067 -0.049958
-0.698541 -3.272882 45.645577 -0.417221 -0.147431 -0.061514
-0.730166 -3.497773 46.741556 -0.444860 -0.177245 -0.076303
-0.825957 -4.059582 47.624742 -0.438744 -0.201484 -0.085194
-0.652561 -4.690682 48.836141 -0.418207 -0.211060 -0.094452
-0.775130 -4.656151 49.019080 -0.464264 -0.286084 -0.105451
-0.552043 -4.374173 49.053031 -0.476281 -0.337490 -0.110170
-0.504384 -4.563812 49.368476 -0.393171 -0.421148 -0.117468
-0.142223 -4.317952 48.756004 -0.421661 -0.411692 -0.115776
-0.261518 -4.147428 47.808905 -0.462784 -0.487877 -0.131237
-0.230066 -3.972371 46.464964 -0.469788 -0.543320 -0.143717
-0.175992 -3.705337 45.225779 -0.445483 -0.593046 -0.153815
-0.157193 -3.164736 43.299788 -0.453698 -0.656719 -0.164924
-0.513012 -3.101959 41.769002 -0.427818 -0.757297 -0.183892
-0.553249 -2.830501 40.063576 -0.437949 -0.759664 -0.186858
-0.952993 -2.461484 37.743659 -0.425414 -0.830106 -0.196677
-1.079865 -1.968910 36.079539 -0.401042 -0.833837 -0.197208
-1.134298 -1.685000 34.762239 -0.339162 -0.821100 -0.195908
-1.339653 -1.269761 33.240849 -0.293093 -0.863004 -0.199499
-1.063926 -0.144910 31.069259 -0.346959 -0.846080 -0.193774
-0.961423 0.732075 29.228124 -0.370809 -0.900240 -0.201694
-1.118507 0.433729 28.886827 -0.247472 -0.991386 -0.217437
-1.035223 0.537665 27.563348 -0.236851 -0.977585 -0.213574
-1.372231 1.584901 25.412953 -0.350487 -1.048600 -0.222854
-1.824898 1.995007 24.225811 -0.336057 -1.147883 -0.230705
-1.674329 1.484260 24.161948 -0.183138 -1.122699 -0.221195
-1.410155 1.755698 23.246793 -0.150109 -1.090058 -0.215355
-2.034179 2.900875 20.939948 -0.256366 -1.198425 -0.226414
-1.932749 3.105624 19.969975 -0.237397 -1.165985 -0.218473
-1.834850 2.070079 20.407466 -0.049347 -1.135020 -0.212289
-1.760405 2.190843 19.260664 -0.054962 -1.087570 -0.196295
-1.752548 3.220761 17.256644 -0.187893 -1.055412 -0.181557
-1.900982 3.116159 16.320877 -0.168165 -1.047886 -0.170259
-1.679907 2.247832 16.687762 -0.017939 -0.968213 -0.156216
-1.829615 2.199597 16.173234 0.024379 -0.960925 -0.149860
-2.042144 2.929691 14.561193 -0.028356 -0.988542 -0.147306
-1.716309 3.165795 13.630780 -0.009156 -0.919356 -0.128478
-1.600809 2.517834 13.770173 0.118413 -0.897108 -0.119431
-1.544556 2.058804 13.904873 0.188462 -0.859025 -0.105459
-1.476357 2.214225 12.871204 0.140759 -0.798209 -0.086377
-1.354749 2.184931 12.254059 0.126671 -0.754758 -0.074540
-1.280773 1.836173 12.352559 0.180718 -0.735431 -0.069273
-1.064270 1.528351 12.317094 0.233422 -0.689893 -0.060469
-1.111448 1.780558 11.687867 0.202479 -0.691790 -0.059424
-1.083190 1.872849 11.037317 0.175087 -0.670971 -0.054032
-1.094809 1.451296 11.074244 0.218834 -0.666052 -0.051660
-0.996975 1.055164 10.929691 0.252542 -0.646040 -0.042111
-0.948779 1.099569 10.207470 0.223908 -0.649591 -0.035637
-0.982922 1.023947 9.672148 0.221673 -0.668927 -0.035448
-0.926984 0.725722 9.420321 0.246156 -0.662390 -0.032970
-0.958312 0.377653 9.068176 0.275064 -0.669644 -0.035267
-0.956909 0.280090 8.227784 0.256866 -0.658830 -0.034587
-0.975898 0.325344 7.561005 0.226491 -0.651386 -0.037754
-1.047840 0.078277 6.985192 0.235257 -0.652824 -0.039302
-0.979390 -0.143775 6.413202 0.247190 -0.645936 -0.040609
-1.036109 -0.069621 5.402074 0.215329 -0.651675 -0.041839
-1.096000 -0.066859 4.526259 0.196533 -0.660222 -0.045047
-1.091891 0.042936 4.050183 0.175090 -0.641816 -0.045701
-1.106471 -0.056919 3.355335 0.187409 -0.633151 -0.049865
-1.154179 -0.101403 2.661344 0.178090 -0.634389 -0.055671
-1.260660 -0.389939 2.200000 0.211844 -0.642512 -0.062527
-1.367923 -0.314595 1.315787 0.192802 -0.639839 -0.062770
-1.352295 -0.146189 0.792654 0.174380 -0.645913 -0.064983
-1.323388 -0.341434 0.478524 0.211768 -0.643824 -0.062081
-1.179791 -0.312389 0.309933 0.229479 -0.637726 -0.062049
-1.190444 -0.243012 -0.005102 0.236266 -0.663043 -0.066077
-1.069709 -0.182499 -0.132471 0.240748 -0.648948 -0.065546
-1.217073 -0.206711 -0.187093 0.250201 -0.678557 -0.071486
-1.162514 -0.079172 -0.346771 0.232811 -0.654161 -0.066328
-1.111611 0.129520 -0.499664 0.200981 -0.643630 -0.064846
-1.133184 0.050216 -0.353370 0.206870 -0.635561 -0.056970
-1.246762 0.005433 0.027537 0.209952 -0.628812 -0.047709
-1.002615 0.007765 0.219097 0.201749 -0.597145 -0.042353
-1.183792 0.081665 0.286055 0.181868 -0.612903 -0.039072
-1.077951 0.239357 0.478751 0.159319 -0.604538 -0.040106
-1.198141 0.340105 0.820571 0.149883 -0.628427 -0.045707
-1.016912 0.260148 1.162185 0.152425 -0.599329 -0.044150
-1.138984 0.434601 1.535552 0.114917 -0.611367 -0.047838
-1.160136 0.365146 1.680674 0.092298 -0.603903 -0.047436
-1.182226 0.360098 1.853612 0.057890 -0.592297 -0.044533
-1.263768 0.311958 2.082791 0.040412 -0.603028 -0.043496
-1.173650 0.242196 2.254693 0.037784 -0.597958 -0.037848
-1.012258 0.236363 2.383537 0.040007 -0.599874 -0.035746
-0.962814 0.272616 2.315547 0.036214 -0.620971 -0.037888
-0.900462 0.491007 2.296939 0.008127 -0.618009 -0.037058
-0.930985 0.511733 2.163497 0.008590 -0.629108 -0.039388
-0.947490 0.492474 2.151485 0.014907 -0.627895 -0.038816
-0.939266 0.551778 2.045308 0.017215 -0.617651 -0.036212
-0.969606 0.610885 1.841797 0.026780 -0.613476 -0.034836
-0.952876 0.548308 1.653306 0.049489 -0.603882 -0.032660
-0.976867 0.446851 1.514112 0.073571 -0.595902 -0.031821
-0.990723 0.331192 1.310256 0.092675 -0.583838 -0.031445
-1.061949 0.182010 1.115237 0.111044 -0.586139 -0.035458
-1.075419 -0.001014 1.004793 0.135936 -0.584836 -0.038795
-1.073076 -0.113603 1.057602 0.156697 -0.590751 -0.042168
-1.063724 -0.312180 0.969287 0.188498 -0.602209 -0.044792
-1.037574 -0.212256 0.982142 0.188183 -0.613667 -0.047349
-1.031954 -0.306359 1.130817 0.207272 -0.632809 -0.050745
-1.024051 -0.399379 1.273323 0.219016 -0.641361 -0.051775
-0.998068 -0.443979 1.878990 0.230321 -0.641508 -0.054575
-0.945158 -0.461783 2.097790 0.234246 -0.628314 -0.054534
-0.906424 -0.367208 2.363017 0.231680 -0.624399 -0.056537
-0.857724 -0.436581 2.789325 0.241517 -0.617241 -0.057417
-0.813344 -0.504726 3.385223 0.237599 -0.605237 -0.059812
-0.840727 -0.573343 4.007685 0.210091 -0.589359 -0.062909
-0.917726 -0.688141 4.587900 0.167308 -0.573400 -0.067583
-1.020930 -0.738465 5.264458 0.128157 -0.562267 -0.070033
-1.066994 -0.794662 5.822525 0.101434 -0.559941 -0.072733
-1.051690 -0.661554 6.293252 0.076434 -0.566265 -0.074368
-1.019552 -0.380164 6.687725 0.048676 -0.580364 -0.076160
-0.995591 -0.206600 7.003599 0.038320 -0.582176 -0.076622
-0.939606 -0.109912 7.305277 0.027066 -0.579164 -0.078724
-0.975350 -0.159508 7.501640 0.021996 -0.573871 -0.079255
-0.989655 -0.308738 7.850664 0.020668 -0.559484 -0.080881
-1.050514 -0.553946 8.061831 0.033275 -0.549600 -0.081292
-1.059678 -0.629221 8.076339 0.034233 -0.552324 -0.084228
-1.090831 -0.640035 8.058989 0.037132 -0.561862 -0.087466
-1.060071 -0.606872 8.076870 0.038687 -0.564507 -0.088968
-1.015561 -0.578542 8.131166 0.042498 -0.565324 -0.088975
-0.971000 -0.469290 8.146567 0.034516 -0.568672 -0.088021
-0.921756 -0.308326 8.228795 0.022743 -0.575133 -0.086868
-0.870776 -0.199164 8.425341 0.022045 -0.585119 -0.085340
-0.822520 -0.108152 8.608903 0.013685 -0.591143 -0.081710
-0.786685 -0.202326 8.996379 0.005827 -0.589692 -0.079028
-0.777812 -0.241371 9.490740 -0.012967 -0.560201 -0.075287
-0.812788 -0.358861 10.130410 -0.032215 -0.539510 -0.074237
-0.829102 -0.575823 10.963351 -0.025227 -0.527575 -0.075509
-0.815562 -0.772931 12.038457 -0.003397 -0.509881 -0.072731
-0.693628 -0.394945 12.497170 -0.066448 -0.476525 -0.066166
-0.810222 -0.078781 13.099672 -0.125946 -0.470826 -0.066271
-0.995465 -0.406205 14.748184 -0.120018 -0.439696 -0.067011
-0.945157 -0.628777 15.853099 -0.118163 -0.395471 -0.067188
-0.982557 -0.647941 16.730108 -0.146459 -0.377358 -0.068086
-1.038806 -0.467130 17.474199 -0.185211 -0.383547 -0.069976
-0.981089 -0.415706 18.196285 -0.193289 -0.371774 -0.068515
-0.881107 -0.446770 18.970079 -0.188490 -0.351617 -0.067687
-1.026142 -0.849528 20.192646 -0.145270 -0.363830 -0.069763
-1.010014 -0.987733 20.661538 -0.162467 -0.333448 -0.065487
-1.024761 -1.027381 21.051241 -0.194506 -0.324859 -0.067553
-0.992801 -1.316727 21.543156 -0.171058 -0.311586 -0.066248
-1.059692 -1.466844 21.750828 -0.157377 -0.316743 -0.067358
-1.103237 -1.608144 21.899711 -0.150243 -0.327673 -0.074187
-1.131417 -1.537864 21.654827 -0.175895 -0.330780 -0.079487
-1.054511 -1.663120 21.455197 -0.177210 -0.336042 -0.084920
-0.980238 -1.736065 21.273830 -0.184013 -0.349335 -0.088055
-0.818974 -1.769519 20.742460 -0.163262 -0.374164 -0.089292
-0.783970 -1.685615 20.444978 -0.161713 -0.384074 -0.089146
-0.762488 -1.330723 19.611621 -0.163074 -0.423241 -0.090464
-0.769443 -1.231434 19.020730 -0.133330 -0.445987 -0.092499
-0.788227 -1.353782 18.445286 -0.100196 -0.434179 -0.091277
-0.852005 -1.410935 17.578887 -0.094693 -0.423458 -0.091397
-1.048398 -1.168233 16.347695 -0.124716 -0.434499 -0.094211
-1.162287 -0.940970 15.171488 -0.132129 -0.450282 -0.095915
-1.144568 -0.777348 13.846300 -0.110598 -0.453283 -0.094236
-1.157370 -0.530367 12.732459 -0.094650 -0.471640 -0.097045
-1.142883 -0.481328 11.739518 -0.070436 -0.487521 -0.099161
-0.995825 -0.399144 10.466118 -0.055999 -0.471582 -0.092260
-0.948933 -0.126414 9.077156 -0.053785 -0.512678 -0.093202
-0.977894 0.047439 7.990863 -0.029212 -0.565288 -0.091114
-0.937800 -0.127707 7.305258 0.040658 -0.609962 -0.087867
-1.011237 -0.489930 7.133076 0.140953 -0.655011 -0.086605
-1.004956 0.092733 5.446022 0.089297 -0.664266 -0.076630
-1.088121 0.693999 3.830701 0.035402 -0.692415 -0.075313
-1.222367 0.465552 3.572508 0.104605 -0.726765 -0.084415
-1.262762 -0.121361 3.981396 0.226518 -0.737137 -0.096945
-1.280356 0.174083 2.793472 0.204012 -0.737434 -0.102916
-1.387055 1.052656 1.319566 0.099875 -0.777229 -0.111690
-1.268181 1.169097 0.601343 0.099788 -0.761821 -0.105823
-1.058404 0.479765 1.208116 0.217872 -0.740533 -0.105986
-1.031314 0.124947 1.403734 0.280799 -0.753476 -0.112209
-1.126299 0.806592 0.094905 0.180751 -0.762854 -0.114066
-1.179433 1.236318 -0.663098 0.120958 -0.772518 -0.118727
-1.155007 0.575852 -0.163495 0.207057 -0.758931 -0.119713
-1.080491 0.175341 0.234990 0.257137 -0.737158 -0.118563
-1.152482 0.703626 -0.307672 0.175863 -0.738032 -0.118067
-1.279976 0.768975 -0.546773 0.160438 -0.752070 -0.119032
-1.214123 0.561235 -0.288476 0.183182 -0.715938 -0.109683
-1.121988 0.484120 -0.237949 0.191886 -0.692395 -0.105468
-1.100235 0.592993 -0.299990 0.177171 -0.674954 -0.101504
-0.976014 0.684601 -0.422251 0.164443 -0.636476 -0.094673
-0.820498 0.588618 -0.306915 0.177626 -0.599009 -0.089624
-0.875566 0.607324 -0.257084 0.176125 -0.597065 -0.088396
-0.911671 0.773987 -0.295806 0.150835 -0.593839 -0.085318
-0.983859 0.574907 -0.007923 0.166853 -0.597026 -0.082981
-0.950740 0.566458 0.081468 0.154169 -0.586206 -0.080560
-0.962297 0.679049 0.068772 0.125960 -0.597598 -0.085524
-0.968815 0.478205 0.524670 0.155414 -0.595264 -0.086708
-0.970518 0.203221 1.069932 0.194368 -0.591355 -0.086409
-0.899315 0.247323 1.185596 0.183183 -0.584690 -0.084865
-0.995571 0.381856 1.360813 0.152383 -0.586106 -0.082545
-0.966234 0.192863 1.985616 0.153741 -0.561467 -0.079611
-0.945802 -0.209931 3.154642 0.187362 -0.531182 -0.077256
-0.885216 -0.165765 3.834476 0.156921 -0.491107 -0.069130
-0.849460 0.433901 4.054276 0.055710 -0.496081 -0.066364
-0.800411 0.578351 5.156862 0.045753 -0.513094 -0.060506
-0.521716 0.269969 6.760674 0.102412 -0.498407 -0.050625
-0.448011 0.342193 8.329206 0.112381 -0.527208 -0.049922
-0.469510 1.059123 8.239426 -0.019424 -0.512259 -0.043498
-0.531925 1.252992 9.446688 -0.098637 -0.472658 -0.049277
-0.848628 -0.103727 11.968077 0.028232 -0.440378 -0.060702
-0.873298 -1.151375 14.254410 0.102927 -0.318878 -0.055758
-1.062677 -0.205723 13.756367 -0.066874 -0.293695 -0.058123
-1.320370 0.257012 14.274477 -0.141787 -0.296147 -0.065002
-1.072905 -0.870949 17.035384 0.010013 -0.218934 -0.062595
-0.932025 -1.461571 18.321275 0.047651 -0.167489 -0.063284
-1.158841 -0.592009 17.801858 -0.161029 -0.191261 -0.076503
-1.334876 -0.390961 17.919466 -0.249783 -0.204585 -0.080233
-1.061595 -1.823610 19.505763 -0.092016 -0.175609 -0.078101
-1.062049 -2.582730 20.633849 -0.033468 -0.194762 -0.080667
-1.253965 -2.145540 19.833040 -0.168406 -0.248701 -0.087095
-1.201219 -1.985889 19.614023 -0.218876 -0.251456 -0.084111
-0.945948 -2.846737 20.804079 -0.069608 -0.246809 -0.085964
-0.835147 -3.387632 21.620612 0.032742 -0.232994 -0.088166
-0.962528 -2.714022 21.023452 -0.069940 -0.228930 -0.091293
-1.101922 -2.402254 20.771538 -0.132523 -0.236548 -0.094235
-1.023479 -2.875247 21.705021 -0.058347 -0.235125 -0.093740
-0.696498 -3.110456 22.581251 -0.011459 -0.203587 -0.086288
-0.566534 -2.637646 22.354168 -0.091617 -0.205670 -0.082169
-0.671084 -2.303660 22.309907 -0.178010 -0.238989 -0.086144
-0.667871 -2.692979 23.343782 -0.184555 -0.233331 -0.087340
-0.617120 -2.921835 24.000548 -0.175643 -0.243925 -0.092199
-0.768293 -2.753039 24.341589 -0.207832 -0.296118 -0.097802
-0.767831 -2.127211 24.393730 -0.281836 -0.311225 -0.094716
-0.739678 -2.045163 24.932938 -0.279269 -0.315812 -0.092781
-0.656672 -2.206656 25.624274 -0.257110 -0.301328 -0.090895
-0.750830 -2.025115 25.891355 -0.293523 -0.315366 -0.093123
-0.765048 -1.711433 25.935296 -0.335428 -0.321733 -0.094189
-0.730843 -1.503186 26.057727 -0.338365 -0.314455 -0.089253
-0.636075 -1.262001 25.999130 -0.336422 -0.304023 -0.086522
-0.707523 -0.850648 25.389150 -0.375277 -0.316442 -0.087987
-0.857609 -0.778692 25.034007 -0.373393 -0.345913 -0.092065
-0.884620 -0.805035 24.608427 -0.361245 -0.347955 -0.091578
-0.912792 -0.869352 23.672505 -0.350149 -0.371652 -0.095474
-1.088042 -0.713045 22.769080 -0.372398 -0.428916 -0.102669
-1.084640 -0.623179 21.816776 -0.376433 -0.456478 -0.104762
-1.051807 -0.711028 21.203882 -0.329638 -0.486763 -0.106509
-0.950618 -0.405672 20.100202 -0.305899 -0.513251 -0.107046
-0.931060 0.113169 18.825482 -0.302351 -0.536643 -0.107243
-0.932790 0.237687 17.930441 -0.263134 -0.542652 -0.107756
-0.993039 0.197568 17.161936 -0.234623 -0.526465 -0.106698
-1.142051 0.180249 16.364116 -0.229383 -0.521193 -0.108341
-1.256802 0.178698 15.531430 -0.219483 -0.528563 -0.107989
-1.149871 0.149621 14.940875 -0.182582 -0.532927 -0.101064
-0.999521 0.361284 14.266380 -0.164781 -0.563850 -0.097152
-0.963627 0.598670 13.553643 -0.159292 -0.610138 -0.094186
-0.962163 0.669839 13.163646 -0.146129 -0.636178 -0.091056
-0.941959 0.621192 12.809661 -0.134327 -0.631239 -0.086996
-1.037083 0.700514 12.281623 -0.146310 -0.630293 -0.085941
-1.102787 0.831025 11.783088 -0.159198 -0.625205 -0.086485
-1.083228 0.788943 11.429107 -0.130163 -0.612913 -0.087841
-1.041734 0.792206 11.109605 -0.110141 -0.617333 -0.090869
-1.084313 0.861906 10.629406 -0.098272 -0.638747 -0.094786
-1.015804 0.841184 10.320841 -0.082832 -0.640400 -0.094057
-1.013821 0.714066 10.032779 -0.060357 -0.641309 -0.090944
-1.022687 0.502158 9.888926 -0.027859 -0.652537 -0.092967
-1.068058 0.518508 9.475122 -0.023372 -0.644376 -0.089294
-1.135081 0.646846 8.901529 -0.031151 -0.650399 -0.090426
-1.289325 0.707597 8.378344 -0.024269 -0.668052 -0.093817
-1.318753 0.625976 8.020192 -0.004138 -0.659067 -0.094660
-1.326887 0.548586 7.367407 0.007114 -0.640088 -0.094077
-1.392058 0.634629 6.551072 -0.004217 -0.631327 -0.093515
-1.371728 0.646851 5.913098 0.005192 -0.620613 -0.091787
-1.316984 0.344876 5.449478 0.062922 -0.610169 -0.088484
-1.228124 0.211222 5.170564 0.108087 -0.600123 -0.086423
-1.226384 0.081572 4.274418 0.133493 -0.613042 -0.089066
-1.230872 0.089808 3.803827 0.137908 -0.608481 -0.090049
-1.227816 0.060732 3.211498 0.144843 -0.606541 -0.092635
-1.310735 -0.097445 2.950366 0.173287 -0.624258 -0.097685
-1.368703 -0.254860 2.700553 0.206422 -0.629871 -0.097385
-1.347977 0.091154 1.970128 0.174336 -0.621964 -0.093303
-1.379661 0.379371 1.351970 0.148397 -0.634179 -0.093333
-1.263467 0.242974 1.298601 0.180149 -0.613241 -0.089575
-1.131790 -0.035819 1.237496 0.225469 -0.580381 -0.085721
-1.096542 0.040581 0.913277 0.220837 -0.564552 -0.085965
-1.125152 0.199360 0.341716 0.199177 -0.558309 -0.084779
-1.081100 0.025092 0.229204 0.227393 -0.545879 -0.082814
-1.042182 -0.314481 0.482232 0.278937 -0.539074 -0.081511
-1.038209 -0.259926 0.331372 0.276676 -0.543363 -0.081916
-1.072560 0.015236 -0.056957 0.240628 -0.554496 -0.083838
-1.104377 0.017627 -0.005745 0.245275 -0.564098 -0.086628
-1.117397 -0.053599 0.066399 0.256319 -0.567406 -0.087510
-1.147570 0.063011 0.120614 0.238205 -0.577689 -0.089544
-1.138585 0.160369 0.170260 0.219153 -0.580163 -0.088699
-1.037050 0.076969 0.381133 0.224714 -0.563215 -0.082970
-0.912492 0.059268 0.587264 0.225163 -0.549014 -0.079479
-0.852654 0.124036 0.632244 0.215384 -0.538948 -0.076728
-0.912320 0.057494 0.979332 0.228134 -0.544911 -0.078316
-0.878249 0.026619 1.305330 0.230002 -0.528895 -0.077236
-0.934486 0.038485 1.492829 0.215594 -0.526000 -0.079479
-1.065189 0.119563 1.653028 0.182109 -0.532004 -0.083389
-1.143702 0.047444 1.856151 0.167436 -0.524825 -0.084502
-1.209444 -0.065074 2.181997 0.162956 -0.524829 -0.086137
-1.235851 -0.108252 2.422413 0.158470 -0.538355 -0.086533
-1.204726 -0.069537 2.422579 0.156408 -0.551293 -0.084542
-1.072853 -0.148524 2.588675 0.175591 -0.551256 -0.081432
-0.973745 -0.216128 2.809392 0.195546 -0.551028 -0.080412
-0.891804 -0.230716 2.842009 0.202939 -0.545605 -0.079055
-0.846524 -0.175415 2.941131 0.199433 -0.543609 -0.079290
-0.848044 -0.165461 2.925370 0.198580 -0.541588 -0.077772
-0.908066 -0.165266 2.971257 0.197991 -0.551922 -0.079288
-0.956106 -0.194611 2.982338 0.198732 -0.550533 -0.077862
-1.011843 -0.234844 2.965735 0.198573 -0.554231 -0.078424
-1.032911 -0.270183 2.923698 0.195593 -0.547517 -0.076905
-1.044242 -0.356825 2.883773 0.197725 -0.541379 -0.077032
-1.067998 -0.459837 2.880178 0.203998 -0.540753 -0.077523
-1.076263 -0.513729 2.861325 0.205209 -0.538737 -0.077489
-1.096632 -0.529230 2.825259 0.208348 -0.541773 -0.077557
-1.082336 -0.465225 2.719655 0.206290 -0.546891 -0.077646
-1.055738 -0.409699 2.648449 0.213949 -0.551992 -0.077932
-1.040330 -0.386434 2.599818 0.222529 -0.556191 -0.078661
-1.047054 -0.382117 2.567167 0.234112 -0.563072 -0.080384
-1.100332 -0.390684 2.487156 0.241913 -0.572573 -0.082689
-1.115582 -0.429711 2.478720 0.248462 -0.567713 -0.082509
-1.137920 -0.478018 2.390717 0.252260 -0.566927 -0.083317
-1.122981 -0.527515 2.366942 0.257869 -0.557865 -0.081939
-1.089381 -0.588715 2.333596 0.267717 -0.551519 -0.080552
-1.064026 -0.559465 2.261084 0.269049 -0.548712 -0.079556
-1.052824 -0.540178 2.155567 0.272528 -0.551423 -0.079173
-1.035094 -0.500893 2.080914 0.272439 -0.552000 -0.079311
-1.045848 -0.511129 2.089349 0.276694 -0.555280 -0.080572
-1.053142 -0.467843 2.026719 0.269835 -0.553506 -0.080564
-1.066542 -0.471439 2.009345 0.268049 -0.554987 -0.081633
-1.098381 -0.473618 1.993298 0.266630 -0.559242 -0.082963
-1.096290 -0.492241 1.991839 0.268246 -0.556621 -0.082847
-1.114793 -0.515377 1.983340 0.272694 -0.561048 -0.083847
-1.068694 -0.508447 1.959992 0.274275 -0.552777 -0.082654
-1.055628 -0.515682 1.949379 0.279006 -0.553371 -0.082777
-1.033497 -0.462121 1.884217 0.274656 -0.549709 -0.081828
-1.034947 -0.466709 1.877922 0.278039 -0.552404 -0.082788
-1.058647 -0.410782 1.806778 0.271085 -0.555246 -0.083235
-1.087018 -0.390973 1.754286 0.268228 -0.559192 -0.084443
-1.112822 -0.346877 1.660130 0.261818 -0.562040 -0.085442
-1.127355 -0.308705 1.585910 0.258424 -0.560083 -0.085480
-1.137840 -0.283847 1.458678 0.257549 -0.559827 -0.085342
-1.134465 -0.240766 1.285916 0.254648 -0.559365 -0.085351
-1.135815 -0.177882 1.090379 0.248771 -0.558430 -0.084921
-1.146725 -0.167686 1.037225 0.250033 -0.561355 -0.086417
-1.112339 -0.350824 1.314136 0.277560 -0.555213 -0.085718
-1.059287 -0.419097 1.355433 0.282042 -0.548050 -0.083488
-1.033104 -0.171013 1.339875 0.241669 -0.562251 -0.085611
-1.019243 -0.251177 1.709517 0.259151 -0.564874 -0.087076
-0.872156 -0.540200 2.328867 0.314413 -0.549556 -0.084831
-0.739939 -0.442753 2.693853 0.312761 -0.548096 -0.084072
-0.732573 -0.113941 2.958741 0.261497 -0.564757 -0.086050
-0.688549 -0.100635 3.602625 0.225894 -0.545608 -0.084724
-0.778939 -0.477294 4.985777 0.227121 -0.522546 -0.088290
-0.856851 -0.790029 6.292681 0.199782 -0.491963 -0.090759
-0.921419 -0.631746 7.270674 0.123140 -0.468630 -0.089006
-0.850824 -0.141129 7.676056 0.029765 -0.457065 -0.086692
-0.785557 -0.139314 9.164227 0.034262 -0.466736 -0.090909
-0.821244 -0.407085 10.657897 0.079864 -0.463190 -0.094681
-0.853267 -0.140391 11.468812 0.014891 -0.429804 -0.099221
-1.118049 -0.160808 12.154712 -0.040699 -0.417429 -0.112144
-1.164363 -0.587733 13.291314 -0.077909 -0.327100 -0.118761
-1.152300 -0.712943 13.742797 -0.070531 -0.317127 -0.122540
-1.236763 -0.960633 14.043333 -0.050123 -0.332021 -0.125503
-1.300939 -1.007466 14.350228 -0.049524 -0.334918 -0.120733
-1.182457 -1.141089 14.545003 -0.050126 -0.321570 -0.114527
-1.111340 -1.329596 14.592960 -0.049658 -0.320490 -0.110924
-1.035797 -1.500885 14.673619 -0.036115 -0.326325 -0.110152
-0.913569 -1.591294 14.569774 -0.019128 -0.330428 -0.108725
-0.878865 -1.649475 14.520700 0.018095 -0.362236 -0.113426
-0.941847 -1.567934 14.389995 0.031901 -0.389012 -0.117717
-0.971240 -1.566527 14.324587 0.043404 -0.396579 -0.120312
-0.940463 -1.524746 14.388744 0.040661 -0.388607 -0.122624
-0.874549 -1.516519 14.597249 0.043004 -0.367105 -0.121464
-0.841829 -1.545406 14.723258 0.053899 -0.351651 -0.116376
-0.856463 -1.452645 15.297194 0.051406 -0.348950 -0.112046
-0.906291 -1.387711 15.622569 0.028694 -0.350081 -0.105903
-0.916350 -1.302191 16.000255 -0.027336 -0.335882 -0.097959
-0.898499 -1.382934 16.826485 -0.069616 -0.322659 -0.096127
-0.869696 -1.481138 18.090628 -0.090344 -0.303441 -0.092910
-0.793877 -1.376076 19.110620 -0.116094 -0.297491 -0.092736
-0.836597 -1.050231 20.157171 -0.159030 -0.303917 -0.089648
-0.862545 -0.869312 21.247905 -0.182579 -0.309495 -0.086936
-0.882813 -0.875747 22.480831 -0.208080 -0.290540 -0.083591
-0.889538 -0.717488 23.509457 -0.271652 -0.253245 -0.080896
-0.978402 -0.985167 25.013538 -0.256204 -0.239033 -0.081715
-0.862106 -1.216588 26.189617 -0.239473 -0.197349 -0.076252
-0.866323 -1.213961 27.320534 -0.238789 -0.213053 -0.082149
-0.929809 -1.022857 27.793516 -0.274778 -0.238057 -0.084308
-0.884573 -0.876416 28.313998 -0.312768 -0.253980 -0.085785
-0.759616 -1.119271 29.110822 -0.307138 -0.259321 -0.086905
-0.655015 -1.609342 30.327856 -0.270303 -0.254420 -0.087528
-0.749037 -1.609887 30.797194 -0.302086 -0.271397 -0.089901
-0.745588 -1.397208 31.244600 -0.344578 -0.274560 -0.091159
-0.847673 -1.681159 32.116994 -0.309983 -0.295525 -0.094139
-0.764894 -1.625804 32.623150 -0.339784 -0.268723 -0.091332
-0.900858 -1.631301 33.190530 -0.380827 -0.286985 -0.098668
-0.923472 -1.980679 34.026109 -0.378092 -0.274544 -0.097300
-0.788347 -2.324259 34.936775 -0.363278 -0.263185 -0.097527
-0.750329 -2.236886 35.309229 -0.389970 -0.285597 -0.100492
-0.707695 -1.964712 35.413319 -0.424804 -0.314292 -0.104271
-0.742598 -2.040668 35.977728 -0.411388 -0.347362 -0.110166
-0.727650 -2.214531 36.297182 -0.402367 -0.352725 -0.113381
-0.941866 -2.151048 36.317812 -0.428296 -0.393473 -0.122490
-1.048752 -2.065105 36.068951 -0.450657 -0.423693 -0.127591
-0.927428 -2.243087 36.079860 -0.423763 -0.435454 -0.129712
-0.860104 -2.144883 35.818374 -0.427779 -0.461706 -0.133293
-0.923225 -1.997886 35.448582 -0.433435 -0.513466 -0.142000
-0.860563 -1.862647 35.044336 -0.439908 -0.520393 -0.143782
-0.905125 -1.747991 34.535333 -0.448273 -0.547036 -0.149848
-0.991936 -1.784389 34.266585 -0.438373 -0.567085 -0.155073
-0.929497 -1.659375 33.732457 -0.456091 -0.554851 -0.153445
-1.117085 -1.564694 33.232673 -0.462254 -0.603324 -0.160148
-1.167482 -1.419628 32.667179 -0.458303 -0.619925 -0.160130
-1.175280 -1.194150 31.869572 -0.454504 -0.642665 -0.163866
-1.288455 -0.914229 30.992511 -0.448712 -0.683448 -0.169782
-1.210936 -0.444726 29.738603 -0.461260 -0.685346 -0.169584
-1.184615 -0.353644 28.847516 -0.418147 -0.694382 -0.171520
-1.247175 -0.288231 27.710563 -0.388308 -0.700071 -0.171389
-1.269611 0.002579 26.290360 -0.403171 -0.693370 -0.167666
-1.401212 0.159083 24.999893 -0.394644 -0.707388 -0.167085
-1.372395 -0.140188 24.438384 -0.310029 -0.702611 -0.164399
-1.292609 -0.127131 23.364815 -0.270517 -0.692762 -0.155072
-1.210109 0.480548 21.891602 -0.319827 -0.707169 -0.148874
-1.326492 0.671858 21.065966 -0.296616 -0.771143 -0.147653
-1.238973 0.582895 20.581420 -0.246376 -0.781704 -0.138616
-1.064569 0.867940 19.967636 -0.237260 -0.793306 -0.132883
-1.181212 1.345990 19.037123 -0.261085 -0.837719 -0.127902
-1.101021 1.477734 18.510176 -0.245245 -0.835225 -0.118988
-0.948796 1.546189 18.120167 -0.227200 -0.802277 -0.111351
-0.935746 1.687751 17.576198 -0.227902 -0.793826 -0.111057
-1.063783 1.813788 17.216276 -0.227056 -0.795322 -0.111531
-1.007171 1.679351 17.112773 -0.191947 -0.767099 -0.109697
-0.985926 1.601046 17.190819 -0.164595 -0.746791 -0.108313
-1.227341 1.575415 17.337206 -0.152807 -0.774099 -0.111664
-1.256154 1.531399 17.419902 -0.155064 -0.759710 -0.107099
-1.340860 1.540555 17.649429 -0.177225 -0.749222 -0.102415
-1.492658 1.344032 18.365670 -0.171137 -0.762231 -0.103833
-1.449489 1.168867 19.043531 -0.177830 -0.726328 -0.096475
-1.378949 1.118831 19.729773 -0.201309 -0.701858 -0.093561
-1.338852 1.042887 20.477823 -0.217562 -0.686443 -0.089214
-1.112252 0.647485 21.712404 -0.182819 -0.640500 -0.077333
-0.897016 0.382745 22.749725 -0.164464 -0.609485 -0.067639
-0.821000 0.440871 23.630910 -0.187080 -0.601179 -0.062545
-0.793499 0.318026 24.184567 -0.202477 -0.583479 -0.058473
-0.879983 -0.049892 25.272992 -0.189309 -0.567087 -0.060864
-1.005673 -0.478935 26.378943 -0.168795 -0.532483 -0.065578
-1.156482 -0.628721 26.465066 -0.192430 -0.507662 -0.070472
-1.256090 -0.804803 26.847071 -0.209121 -0.494797 -0.077659
-1.241081 -1.322623 27.615804 -0.178292 -0.477996 -0.081772
-1.101952 -1.836686 28.225039 -0.167823 -0.450614 -0.084251
-1.180427 -1.775136 28.316049 -0.209870 -0.454899 -0.088719
-1.183624 -1.845210 28.471976 -0.215184 -0.455613 -0.090624
-1.077797 -2.019974 28.944315 -0.174393 -0.433957 -0.086434
-0.888559 -2.104194 29.326437 -0.146060 -0.404610 -0.082759
-0.983262 -1.950903 29.494314 -0.173383 -0.408751 -0.082992
-1.011314 -1.811326 29.538910 -0.204567 -0.406020 -0.082184
-0.940476 -1.962550 30.047873 -0.182998 -0.398837 -0.081492
-0.896493 -2.032194 30.552652 -0.168979 -0.407409 -0.083900
-0.960906 -1.928133 30.811862 -0.177693 -0.430448 -0.087610
-0.859231 -1.919754 31.349313 -0.170608 -0.424924 -0.089063
-0.853354 -1.953101 31.481709 -0.169558 -0.423983 -0.089176
-0.805552 -1.988602 31.754361 -0.186846 -0.415513 -0.089011
-0.836940 -1.972245 31.907909 -0.225815 -0.423749 -0.090233
-0.812315 -1.849122 31.812867 -0.268529 -0.432059 -0.090410
-0.737138 -1.737351 31.737050 -0.287709 -0.442938 -0.092001
-0.693183 -1.655079 31.545816 -0.294354 -0.458046 -0.094002
-0.692570 -1.642137 31.349533 -0.291286 -0.476477 -0.097303
-0.685269 -1.401438 30.796124 -0.325571 -0.485479 -0.097849
-0.771947 -1.283816 30.254798 -0.344042 -0.516901 -0.102939
-0.926611 -1.463588 29.953917 -0.324592 -0.550815 -0.108959
-0.962716 -1.498490 29.419633 -0.319954 -0.557410 -0.111363
-1.110163 -1.236475 28.507960 -0.333453 -0.596394 -0.118291
-1.101445 -0.847520 27.257880 -0.320839 -0.627762 -0.123699
-1.127267 -0.617560 26.494539 -0.291008 -0.652697 -0.129261
-1.130249 -0.366947 25.529138 -0.272474 -0.668695 -0.133918
-1.221789 -0.258404 24.782369 -0.246875 -0.684746 -0.137878
-1.196173 -0.153024 23.885771 -0.239805 -0.675134 -0.136687
-1.174734 0.208212 22.691402 -0.266402 -0.671674 -0.132324
-1.198291 0.357496 22.041255 -0.248255 -0.701208 -0.132906
-1.117055 0.296160 21.488425 -0.186560 -0.720653 -0.126626
-1.038312 0.529237 21.014767 -0.202390 -0.721679 -0.121986
-1.089402 1.023122 20.089766 -0.244082 -0.759125 -0.119848
-1.134805 1.154363 19.721289 -0.231345 -0.793798 -0.117906
-0.922355 1.121225 19.535108 -0.196118 -0.774224 -0.109111
-0.906623 1.213169 19.373295 -0.181824 -0.775242 -0.104981
-1.018676 1.369349 19.191394 -0.183697 -0.787477 -0.104769
-1.011561 1.327439 19.259089 -0.172670 -0.734980 -0.094062
-1.045798 1.193383 19.618490 -0.172090 -0.711245 -0.097560
-1.325214 1.028549 20.135845 -0.192595 -0.702634 -0.099630
-1.279615 0.976783 20.866735 -0.237137 -0.649779 -0.095315
-1.299042 0.932929 21.736553 -0.246959 -0.654265 -0.094981
-1.246461 0.987987 22.693587 -0.256916 -0.640578 -0.086095
-1.178804 1.091067 23.582495 -0.284406 -0.618137 -0.078296
-1.211010 0.745482 24.943917 -0.264059 -0.611777 -0.076474
-1.034501 0.269599 26.575873 -0.245547 -0.560889 -0.065694
-0.923265 0.115222 27.435977 -0.245269 -0.548611 -0.062477
-0.940589 -0.321464 28.807735 -0.207309 -0.571483 -0.064614
-0.848641 -0.250185 29.739751 -0.250371 -0.543059 -0.060611
-0.937397 -0.354790 30.386835 -0.269653 -0.541699 -0.068274
-1.178110 -0.945362 31.370001 -0.223079 -0.529771 -0.078277
-1.209023 -1.402392 32.125106 -0.214393 -0.476723 -0.083592
-1.158715 -1.610976 32.319970 -0.253599 -0.424021 -0.088035
-1.377260 -1.758458 32.389995 -0.288540 -0.442662 -0.096418
-1.253553 -2.096783 32.761236 -0.268459 -0.425326 -0.100788
-1.131965 -2.325465 33.133076 -0.222808 -0.413892 -0.098898
-0.954569 -2.317031 33.009555 -0.192720 -0.425965 -0.101788
-1.005033 -2.193274 32.809406 -0.197536 -0.439593 -0.102618
-0.935126 -2.468926 32.647696 -0.169368 -0.432436 -0.102451
-0.882994 -2.534760 32.371641 -0.171512 -0.418580 -0.099649
-0.951480 -2.650176 32.326473 -0.147494 -0.454628 -0.103474
-0.917337 -2.475237 31.853706 -0.158056 -0.484638 -0.105373
-0.773584 -2.079936 31.190389 -0.202665 -0.497060 -0.105590
-0.775314 -1.915685 30.844349 -0.218452 -0.529037 -0.111088
-0.791365 -1.972660 30.555086 -0.208611 -0.533922 -0.111426
-0.817342 -1.879957 30.230935 -0.217469 -0.532613 -0.111015
-0.857454 -1.542100 29.347886 -0.254702 -0.532537 -0.106747
-0.947036 -1.297128 28.640392 -0.261294 -0.552714 -0.108370
-0.968928 -1.284736 28.196844 -0.228406 -0.555042 -0.107171
-0.979064 -1.079793 27.431605 -0.234045 -0.557245 -0.106186
-1.068365 -0.656822 26.379089 -0.271591 -0.581671 -0.108476
-1.132204 -0.411948 25.597989 -0.275921 -0.604763 -0.113056
-1.116401 -0.292036 24.960639 -0.248818 -0.615489 -0.115730
-1.103583 -0.048137 24.487988 -0.234278 -0.629436 -0.118410
-1.116326 0.188759 23.799899 -0.222720 -0.652492 -0.118448
-1.109856 0.598623 23.191585 -0.232451 -0.672782 -0.116058
-1.069461 0.870830 22.726925 -0.224883 -0.692697 -0.114145
-1.118050 0.950433 22.478328 -0.212070 -0.717342 -0.112849
-0.991497 0.909163 22.419214 -0.212001 -0.707136 -0.109392
-0.970388 0.960301 22.407841 -0.250209 -0.695914 -0.101939
-0.977876 0.899271 22.625742 -0.264921 -0.709060 -0.101966
-1.005546 0.979618 22.841344 -0.280986 -0.699088 -0.095303
-0.938078 1.155629 23.171929 -0.292637 -0.673357 -0.090372
-1.116249 1.233750 23.847960 -0.290131 -0.667052 -0.088585
-1.140862 1.170568 24.549586 -0.299908 -0.612153 -0.080341
-1.251492 0.957110 25.497951 -0.312303 -0.586641 -0.080179
-1.316214 0.701271 26.550604 -0.317242 -0.569015 -0.080251
-1.316051 0.369008 27.767083 -0.290659 -0.558652 -0.079443
-1.203519 0.430076 28.647684 -0.299239 -0.555003 -0.078675
-1.109466 0.322297 30.033934 -0.287129 -0.567693 -0.080138
-1.018308 -0.019232 31.036354 -0.262534 -0.565921 -0.079132
-0.919689 -0.493465 32.450071 -0.248232 -0.550841 -0.080158
-0.972954 -0.585231 33.343586 -0.282742 -0.527377 -0.079233
-1.048049 -0.696604 33.881889 -0.300254 -0.505512 -0.082078
-1.167118 -1.233285 35.103978 -0.256020 -0.484342 -0.088043
-1.115663 -1.436368 35.695403 -0.270476 -0.426639 -0.086070
-1.272549 -1.429634 35.924183 -0.311911 -0.417370 -0.089241
-1.289834 -1.869592 36.732690 -0.285681 -0.383735 -0.086998
-1.211099 -2.389210 37.418019 -0.249330 -0.357275 -0.085256
-1.046900 -2.468367 37.592500 -0.277659 -0.345700 -0.085999
-1.053699 -2.494775 37.381408 -0.308933 -0.383597 -0.093595
-0.958183 -2.633099 37.446362 -0.285051 -0.411920 -0.098963
-0.703664 -2.513971 37.123013 -0.262637 -0.424484 -0.101031
-0.788964 -2.374004 36.561635 -0.245564 -0.482688 -0.109549
-0.888858 -2.211886 35.624235 -0.264104 -0.511900 -0.112556
-0.845858 -2.092851 34.647413 -0.274338 -0.524453 -0.114844
-0.868803 -1.995509 33.703117 -0.264126 -0.549775 -0.116925
-0.831199 -1.886469 32.785353 -0.251913 -0.570354 -0.119597
-0.813254 -1.567995 31.568976 -0.278616 -0.592235 -0.121046
-0.860504 -1.309179 30.413472 -0.301952 -0.623760 -0.123351
-0.837381 -1.280924 29.840904 -0.276086 -0.636860 -0.124594
-0.795259 -1.267486 29.361919 -0.242318 -0.645640 -0.125746
-0.860511 -0.916868 28.503630 -0.250281 -0.669646 -0.128079
-0.883453 -0.305421 27.772334 -0.285236 -0.679497 -0.129033
-0.988895 -0.055728 27.194818 -0.268208 -0.706441 -0.132808
-1.097883 0.126291 27.077499 -0.236426 -0.726521 -0.134434
-1.149283 0.242169 26.575191 -0.230249 -0.732646 -0.132281
-1.232665 0.662354 25.609583 -0.295256 -0.729133 -0.130213
-1.303760 0.696670 25.117033 -0.317234 -0.728077 -0.129084
-1.324558 0.591459 24.901186 -0.302559 -0.724899 -0.127590
-1.224050 0.715134 24.572213 -0.296559 -0.716505 -0.122057
-1.182083 1.018174 24.159985 -0.309240 -0.735086 -0.118614
-1.144843 1.192991 23.959982 -0.312987 -0.757677 -0.115208
-1.038509 1.101828 24.114793 -0.301169 -0.760449 -0.111365
-0.911401 1.016882 24.285126 -0.302081 -0.750923 -0.107147
-1.069732 0.952683 24.354820 -0.298616 -0.779483 -0.108168
-1.107329 0.941050 24.320350 -0.297894 -0.771928 -0.105444
-1.106343 0.837070 24.338106 -0.290041 -0.746319 -0.101292
-1.192029 0.736597 24.272189 -0.293011 -0.745518 -0.103304
-1.174878 0.675185 24.158203 -0.310791 -0.721397 -0.101085
-1.115071 0.679597 23.982069 -0.319014 -0.711241 -0.102897
-1.080392 0.626278 23.723233 -0.297139 -0.720783 -0.106135
-1.065711 0.595954 23.640817 -0.254346 -0.729844 -0.109804
-1.092185 0.539796 23.426819 -0.223431 -0.726172 -0.111426
-1.284576 0.335182 23.322099 -0.201716 -0.729389 -0.111651
-1.281505 0.122913 23.428924 -0.182250 -0.709012 -0.106833
-1.273018 -0.178504 23.779426 -0.148071 -0.694056 -0.100731
-1.270810 -0.098593 23.837204 -0.159273 -0.694477 -0.096448
-1.331406 -0.038141 24.148755 -0.154948 -0.707397 -0.095655
-1.275763 -0.109791 24.545221 -0.128632 -0.693330 -0.090380
-1.160234 -0.057806 25.019024 -0.124701 -0.678108 -0.088184
-1.051897 -0.069302 25.524048 -0.136397 -0.656622 -0.084167
-0.950168 -0.213479 26.182738 -0.161280 -0.630325 -0.079753
-0.964322 -0.548603 27.143131 -0.175882 -0.617193 -0.077330
-0.981814 -0.737941 27.949418 -0.201456 -0.600130 -0.074189
-1.048172 -0.838635 29.072534 -0.207006 -0.598487 -0.074358
-1.015796 -0.852112 30.038007 -0.214905 -0.573041 -0.072698
-1.069294 -0.959766 31.302867 -0.220595 -0.544854 -0.076227
-1.148657 -1.234155 32.861010 -0.228131 -0.514862 -0.081786
-1.172583 -1.178004 33.665620 -0.300901 -0.474031 -0.085011
-1.258078 -1.205602 34.883276 -0.346537 -0.469930 -0.096455
-1.311813 -1.657441 36.682450 -0.319107 -0.447960 -0.097714
-1.180381 -1.781716 37.883102 -0.336270 -0.396141 -0.087380
-1.262568 -1.608862 38.674071 -0.394197 -0.378580 -0.080413
-1.207178 -1.768815 39.717886 -0.406700 -0.347539 -0.077695
-1.084302 -2.074200 40.735997 -0.398217 -0.311077 -0.077197
-1.077874 -2.253870 41.364121 -0.410882 -0.318614 -0.083838
-1.095120 -2.375741 41.939706 -0.414587 -0.344637 -0.088979
-1.029181 -2.705966 42.453592 -0.382991 -0.367173 -0.092215
-0.931894 -2.954723 42.871282 -0.362013 -0.387977 -0.096367
-0.925990 -2.919139 42.949487 -0.383502 -0.431401 -0.105343
-0.872044 -2.970547 43.006424 -0.386486 -0.467703 -0.111193
-0.672968 -3.102714 43.238064 -0.366303 -0.484231 -0.115204
-0.744171 -2.724807 42.684135 -0.408467 -0.569131 -0.131405
-0.700674 -2.697058 42.615731 -0.408683 -0.582748 -0.134977
-0.671378 -2.683631 42.428958 -0.403044 -0.614635 -0.138806
-0.496553 -2.587865 41.973206 -0.411747 -0.631899 -0.137653
-0.433235 -2.339665 41.355151 -0.441411 -0.675076 -0.143119
-0.453029 -2.125990 40.499992 -0.459544 -0.702705 -0.142200
-0.474172 -2.043621 39.637177 -0.430461 -0.721299 -0.142121
-0.798901 -1.622545 38.431139 -0.434684 -0.769392 -0.147630
-0.908525 -0.978355 36.776178 -0.462889 -0.778242 -0.153144
-1.139144 -0.762413 35.721475 -0.425825 -0.824783 -0.167459
-1.157291 -0.758207 34.875111 -0.374945 -0.836966 -0.172041
-1.093865 -0.431908 33.453658 -0.378027 -0.851369 -0.174366
-1.226802 0.134160 31.650344 -0.412509 -0.901390 -0.181564
-1.166843 0.380002 30.477844 -0.383313 -0.908778 -0.182070
-1.153557 0.436521 29.217024 -0.329128 -0.911207 -0.180252
-1.115812 0.686473 28.048702 -0.302793 -0.931656 -0.185640
-1.353523 0.776876 26.423723 -0.268100 -0.980637 -0.188059
-1.102013 1.102480 25.113608 -0.282798 -0.957938 -0.184699
-1.303119 1.431021 23.658460 -0.272665 -1.043037 -0.198017
-1.362990 1.551674 22.422111 -0.238153 -1.075359 -0.198742
-1.320238 1.649254 21.401824 -0.202152 -1.092777 -0.198844
-1.448284 1.495693 20.704042 -0.136284 -1.127796 -0.199524
-1.211763 1.934027 19.314718 -0.174761 -1.095614 -0.188087
-1.238954 2.386646 18.725763 -0.195085 -1.099891 -0.182044
-1.304830 2.118415 18.866640 -0.112754 -1.104392 -0.177080
-1.320434 2.083841 19.257327 -0.058742 -1.042704 -0.162220
-1.590678 2.413764 19.493767 -0.076919 -1.022996 -0.158145
-1.840401 2.567692 19.604406 -0.121396 -0.995276 -0.153501
-1.812759 2.295870 20.729367 -0.156632 -0.908478 -0.141371
-1.825166 1.653987 22.245211 -0.131012 -0.881089 -0.136376
-1.725733 1.573137 23.558094 -0.154603 -0.852361 -0.123746
-1.582213 1.739960 24.818112 -0.175422 -0.842094 -0.113161
-1.405616 1.583148 26.296565 -0.148019 -0.813956 -0.098621
-1.059602 1.542759 27.628022 -0.165978 -0.750349 -0.083098
-1.088250 1.171847 29.081674 -0.172200 -0.736341 -0.081205
-1.036894 0.466835 31.308766 -0.147075 -0.660215 -0.076359
-1.027511 -0.124087 32.811204 -0.121140 -0.581715 -0.073796
-1.310650 -0.538520 34.051496 -0.121222 -0.553331 -0.079636
-1.347209 -0.383774 34.622452 -0.216280 -0.487448 -0.077887
-1.383398 -1.121263 36.459670 -0.167468 -0.466971 -0.081749
-1.087007 -2.171903 38.226197 -0.103796 -0.390427 -0.068219
-1.065749 -2.470528 39.074333 -0.165283 -0.365662 -0.060649
-1.062417 -2.445436 39.445102 -0.249614 -0.351626 -0.059645
-1.011423 -2.504131 39.950399 -0.244331 -0.334251 -0.066060
-0.891705 -2.968142 41.064420 -0.147210 -0.357152 -0.087212
-0.718049 -3.212716 41.332140 -0.130113 -0.348258 -0.096562
-0.663573 -3.186286 40.784983 -0.191684 -0.387576 -0.108351
-0.617548 -3.365528 40.413014 -0.205324 -0.444083 -0.114921
-0.536637 -3.728616 40.056087 -0.158411 -0.484323 -0.117061
-0.328663 -3.620014 39.480682 -0.162680 -0.488052 -0.115896
-0.553977 -3.453481 38.526961 -0.184914 -0.555733 -0.121412
-0.527864 -3.406681 37.748592 -0.206484 -0.564058 -0.120862
-0.516972 -3.240667 37.198822 -0.234964 -0.579779 -0.125360
-0.789076 -3.154395 36.732121 -0.234531 -0.650785 -0.139021
-0.972235 -2.779369 36.319247 -0.244005 -0.686820 -0.149283
-0.986252 -2.384105 35.867534 -0.248173 -0.703589 -0.159636
-1.159955 -1.840423 35.580985 -0.252867 -0.746014 -0.172759
-1.033915 -1.397903 35.172873 -0.273091 -0.732829 -0.176318
-1.118166 -1.170168 34.760832 -0.322615 -0.742509 -0.182628
-1.303182 -1.147358 34.605279 -0.361751 -0.767203 -0.189888
-1.338163 -0.961701 34.504102 -0.381266 -0.778551 -0.189748
-1.266414 -0.530837 34.064146 -0.379608 -0.800641 -0.189656
-1.282438 -0.028305 33.693159 -0.393834 -0.823566 -0.189726
-1.236476 0.232476 33.198708 -0.412763 -0.819708 -0.184888
-1.247452 0.097006 33.073445 -0.400502 -0.824792 -0.183987
-1.278349 0.025632 32.927779 -0.382300 -0.828337 -0.179709
-1.266843 0.333880 32.311602 -0.393051 -0.834290 -0.175103
-1.271597 0.681817 31.837472 -0.394620 -0.842276 -0.171610
-1.225403 0.883275 31.549183 -0.376241 -0.838696 -0.167167
-1.142657 1.025196 31.160512 -0.368839 -0.826976 -0.162124
-1.099706 1.189833 30.775236 -0.387405 -0.813866 -0.158052
-1.113543 1.264105 30.405925 -0.402400 -0.800558 -0.153293
-1.134743 1.209163 30.289437 -0.391035 -0.784109 -0.149607
-1.158409 1.115576 30.256125 -0.370225 -0.763815 -0.145275
-1.243349 1.019298 30.265411 -0.349604 -0.763689 -0.145321
-1.287151 0.973273 30.250864 -0.338703 -0.761733 -0.145915
-1.285536 0.866342 30.174668 -0.322701 -0.756855 -0.144420
-1.285716 0.776540 30.235091 -0.310218 -0.766711 -0.145234
-1.276297 0.718366 30.250317 -0.303626 -0.779068 -0.143386
-1.229745 0.552995 30.206925 -0.294051 -0.788817 -0.141131
-1.195801 0.479791 29.983616 -0.314868 -0.787369 -0.137043
-1.154833 0.390518 29.766085 -0.337516 -0.779186 -0.132984
-1.089486 0.172717 29.708507 -0.317386 -0.766955 -0.128888
-0.995783 0.077875 29.623972 -0.273214 -0.749362 -0.123216
-1.004641 0.192777 29.346317 -0.238914 -0.740956 -0.122269
-1.085028 0.196176 29.219282 -0.223889 -0.739675 -0.125620
-1.171813 0.061146 29.371319 -0.204129 -0.725603 -0.126328
-1.166379 -0.191590 29.681420 -0.165546 -0.712293 -0.127455
-1.156485 -0.242033 30.017377 -0.147849 -0.706741 -0.127819
-1.118414 -0.223949 30.452264 -0.150956 -0.701862 -0.127022
-1.136608 -0.361639 31.137746 -0.155121 -0.708173 -0.128901
-1.152558 -0.758708 32.171649 -0.157296 -0.706694 -0.128232
-1.081513 -0.972004 32.986322 -0.182945 -0.696309 -0.125673
-1.054848 -1.044011 33.658665 -0.199957 -0.698430 -0.124130
-1.007610 -1.112355 34.163747 -0.206653 -0.693672 -0.122681
-0.991774 -1.213270 34.647604 -0.215130 -0.685961 -0.122084
-1.045614 -1.459319 34.888938 -0.223143 -0.684757 -0.123202
-1.080702 -1.574669 34.813211 -0.251914 -0.673429 -0.123698
-1.127738 -1.651657 34.657176 -0.260592 -0.665532 -0.127010
-1.027454 -1.729299 34.568520 -0.207267 -0.647639 -0.128545
-1.151977 -1.541555 34.130813 -0.171265 -0.666335 -0.133029
-1.164127 -1.283629 33.284319 -0.179087 -0.670328 -0.138662
-1.281761 -1.280813 32.710757 -0.185400 -0.678087 -0.141235
-1.260940 -1.602465 32.459556 -0.151265 -0.698450 -0.148640
-1.185405 -1.630570 31.948017 -0.145549 -0.705133 -0.148874
-1.001381 -1.045517 30.784037 -0.196716 -0.717728 -0.148973
-1.042655 -0.824352 30.061336 -0.203471 -0.743407 -0.149086
-1.034439 -0.767051 29.706038 -0.180223 -0.752936 -0.147016
-0.977033 -0.669415 29.246062 -0.183257 -0.731607 -0.140099
-0.998088 -0.404157 28.611183 -0.210749 -0.728506 -0.137232
-1.017182 -0.188106 28.034554 -0.226173 -0.724109 -0.134151
-0.991442 -0.089322 27.683579 -0.217991 -0.713283 -0.129393
-1.058042 -0.014317 27.405865 -0.202699 -0.731958 -0.128946
-1.108482 0.130515 26.965291 -0.202698 -0.754750 -0.126839
-1.099666 0.279304 26.508056 -0.207037 -0.778436 -0.126998
-1.053799 0.282367 26.089135 -0.197513 -0.799943 -0.129009
-1.017283 0.212533 25.766226 -0.184421 -0.818707 -0.131858
-1.014742 0.287385 25.194798 -0.191910 -0.833259 -0.133348
-1.024542 0.347945 24.715769 -0.184791 -0.850524 -0.134893
-1.090362 0.455200 24.256489 -0.171766 -0.864286 -0.134746
-1.119665 0.515581 23.847294 -0.156402 -0.863140 -0.134525
-1.187004 0.570459 23.529572 -0.159632 -0.849778 -0.132319
-1.234402 0.519197 23.330706 -0.156873 -0.832258 -0.128887
-1.227185 0.466016 23.207846 -0.152386 -0.819649 -0.125736
-1.188198 0.435825 23.158183 -0.148063 -0.803352 -0.120857
-1.223355 0.411469 23.105458 -0.141157 -0.813403 -0.120723
-1.269312 0.386033 23.093846 -0.134274 -0.815584 -0.119696
-1.279932 0.285590 23.140668 -0.118237 -0.814505 -0.119477
-1.283999 0.248890 23.091826 -0.115373 -0.806697 -0.116211
-1.276900 0.193938 22.901761 -0.114116 -0.799343 -0.111217
-1.306225 0.226888 22.667365 -0.115994 -0.795774 -0.105478
-1.281190 0.239985 22.326913 -0.113316 -0.788166 -0.101547
-1.299128 0.203695 21.789446 -0.106423 -0.789639 -0.101605
-1.308482 0.156770 21.250663 -0.099143 -0.785405 -0.101722
-1.195581 0.099682 20.079464 -0.071947 -0.770095 -0.099513
-1.176426 0.122151 19.636876 -0.063819 -0.767996 -0.098050
-1.153895 0.042972 18.678803 -0.034683 -0.776865 -0.098751
-1.171744 -0.144556 18.018274 0.010382 -0.784463 -0.099253
-1.216683 -0.395870 17.102835 0.053321 -0.799988 -0.098490
-1.207475 -0.122626 15.357181 0.018254 -0.811329 -0.096738
-1.269644 -0.039451 14.370746 0.036683 -0.842455 -0.100556
-1.196137 -0.248847 13.048573 0.093659 -0.847562 -0.099225
-1.179862 -0.134650 12.105247 0.112951 -0.860261 -0.102626
-1.285901 -0.332498 11.127079 0.159301 -0.882019 -0.106323
-1.260229 0.005277 9.276631 0.121210 -0.855742 -0.097669
-1.247080 0.209705 7.791715 0.111735 -0.862721 -0.099835
-1.234534 0.086098 7.086849 0.159290 -0.858513 -0.099463
-1.156299 -0.513179 6.820441 0.276881 -0.839482 -0.099541
-1.175979 -0.067333 5.064137 0.232124 -0.835421 -0.099987
-1.402586 0.654532 3.375338 0.149217 -0.874340 -0.105866
-1.479628 0.023412 3.619835 0.268167 -0.889413 -0.109862
-1.243127 -0.640395 3.431495 0.380315 -0.832780 -0.098288
-1.205474 0.253725 1.885580 0.270685 -0.827549 -0.096531
-1.474061 1.062446 0.395272 0.178192 -0.884097 -0.104731
-1.184355 -0.613475 1.872312 0.440574 -0.811858 -0.094228
-1.052006 -0.485437 1.658213 0.425381 -0.785954 -0.091743
-1.230202 0.413076 0.547725 0.306832 -0.829633 -0.099938
-1.353268 1.131284 -0.911024 0.199022 -0.833306 -0.094574
-1.011086 0.445376 0.047979 0.299927 -0.763637 -0.082382
-1.050522 -0.258353 1.093772 0.391206 -0.770426 -0.081376
-1.125862 0.377067 0.648795 0.290309 -0.753312 -0.072268
-1.131591 0.907954 0.469893 0.223704 -0.766843 -0.077407
-1.027559 0.807936 1.010442 0.239389 -0.735558 -0.070665
-0.793346 0.419638 2.314070 0.296787 -0.719794 -0.075995
-1.156071 0.623394 3.094864 0.246028 -0.723990 -0.072092
-1.003462 0.922199 3.722596 0.162421 -0.666950 -0.065498
-1.141953 1.094647 4.787594 0.093700 -0.636652 -0.053051
-0.975265 0.750058 6.951659 0.138946 -0.617331 -0.044478
-0.763081 0.715905 9.798040 0.185381 -0.616152 -0.036271
-0.312874 1.141348 10.998139 0.162282 -0.570433 -0.023414
-0.341284 2.213665 12.187905 0.042864 -0.601087 -0.026722
-0.578287 1.427399 16.243432 0.148401 -0.626174 -0.044337
-0.746660 0.518825 19.163479 0.163520 -0.479053 -0.028617
-0.992243 0.409838 22.354924 0.102158 -0.431190 -0.044142
-1.409514 0.596422 24.013099 0.011273 -0.354092 -0.031092
-1.268357 0.457757 27.475015 0.030961 -0.249178 -0.021806
-1.415267 0.369239 29.804881 -0.007610 -0.192271 -0.011584
-1.251787 -0.085743 32.997902 -0.052947 -0.109395 -0.009402
-1.460288 -0.519622 34.469317 -0.165384 -0.104323 -0.018179
-1.192518 -1.651431 37.530180 -0.167625 0.006262 -0.014716
-1.023923 -2.566389 39.092025 -0.223241 0.020503 -0.025390
-1.030833 -3.255142 41.215273 -0.226973 0.002034 -0.030563
-0.980955 -3.497571 42.062136 -0.242605 -0.059155 -0.036309
-0.583884 -3.467740 43.037259 -0.267552 -0.043354 -0.029302
-0.948034 -4.490888 44.514549 -0.214452 -0.190046 -0.058800
-0.607557 -5.134766 45.089032 -0.278362 -0.126184 -0.055498
-0.643117 -5.752045 45.775631 -0.318482 -0.206877 -0.080328
-0.337538 -6.521168 46.342097 -0.292245 -0.220014 -0.083256
-0.387161 -6.362928 46.161347 -0.364107 -0.306669 -0.089948
0.022652 -5.973806 45.699876 -0.466103 -0.290842 -0.082966
-0.042090 -6.342249 45.758748 -0.463807 -0.381409 -0.098101
0.168093 -6.864254 46.255466 -0.445415 -0.385035 -0.108707
0.215802 -6.444087 45.503364 -0.530790 -0.428630 -0.127504
-0.195705 -5.759791 44.988936 -0.617768 -0.524853 -0.146638
-0.322587 -5.528479 44.490175 -0.587884 -0.609549 -0.165833
-0.647378 -5.213739 44.785337 -0.564341 -0.679883 -0.175247
-0.816408 -4.691148 44.675708 -0.579135 -0.726487 -0.181765
-0.817540 -4.270339 44.275646 -0.639985 -0.706107 -0.175783
-1.036200 -4.362661 44.652892 -0.661211 -0.735614 -0.183588
-0.822884 -4.247590 45.589494 -0.667954 -0.680638 -0.177880
-0.904370 -3.574097 45.968793 -0.700726 -0.685399 -0.178349
-1.313471 -2.579550 46.290069 -0.759477 -0.747339 -0.192707
-1.372760 -1.934281 47.044856 -0.816499 -0.689117 -0.188694
-1.397816 -1.742226 48.029718 -0.815220 -0.642566 -0.184504
-1.473429 -1.474315 48.768324 -0.810857 -0.640017 -0.186168
-1.428892 -0.818370 49.463563 -0.826863 -0.608513 -0.183049
-1.471169 -0.330957 49.687398 -0.817830 -0.603389 -0.181684
-1.733654 -0.270712 50.248392 -0.762051 -0.662694 -0.191800
-1.577030 -0.390457 50.504451 -0.714543 -0.665622 -0.193016
-1.298356 -0.253901 50.319575 -0.702697 -0.660643 -0.190575
-1.367236 -0.091244 50.057912 -0.677393 -0.715922 -0.198066
-1.265457 0.109620 49.638396 -0.651471 -0.699810 -0.193513
-1.455832 0.344301 49.307971 -0.643054 -0.728538 -0.199442
-1.656586 0.443850 49.038520 -0.631907 -0.773088 -0.208553
-1.316165 0.612900 48.846904 -0.640051 -0.721057 -0.200667
-1.262539 0.697916 49.006727 -0.635645 -0.754673 -0.210692
-1.296516 0.481520 49.326592 -0.602369 -0.782926 -0.216852
-1.082343 0.363964 49.674223 -0.592170 -0.743608 -0.212943
-1.153404 0.214580 50.092278 -0.578879 -0.767652 -0.218748
-1.444408 -0.064806 50.553645 -0.543617 -0.807266 -0.221319
-1.092797 -0.325045 50.906257 -0.510006 -0.739478 -0.213714
-1.197904 -0.485912 51.073943 -0.484593 -0.763558 -0.220081
-1.224936 -0.529040 50.824504 -0.472876 -0.780974 -0.224208
-1.235437 -0.592333 50.524114 -0.458563 -0.804378 -0.228941
-1.272654 -0.697348 50.236195 -0.438983 -0.845434 -0.234005
-1.182839 -0.629023 49.779254 -0.447432 -0.868273 -0.232474
-0.946733 -0.510695 49.249111 -0.466025 -0.864543 -0.227692
-0.871181 -0.609128 49.012613 -0.456114 -0.867907 -0.227871
-0.934825 -0.719339 48.799593 -0.440007 -0.844859 -0.225751
-1.080038 -0.771003 48.689085 -0.414787 -0.827186 -0.230057
-1.347782 -0.700805 48.553317 -0.408044 -0.831582 -0.233065
-1.332516 -0.531696 48.738520 -0.411696 -0.810754 -0.232234
-1.346451 -0.421401 49.054624 -0.394415 -0.806849 -0.233068
-1.366370 -0.221172 49.269052 -0.387813 -0.805887 -0.233949
-1.468987 0.070350 49.369446 -0.415155 -0.812738 -0.234733
-1.522065 0.095070 49.622459 -0.444523 -0.812879 -0.233642
-1.573378 -0.170688 50.157156 -0.460137 -0.821714 -0.233834
-1.454268 -0.375554 50.684571 -0.474021 -0.809004 -0.231552
-1.367220 -0.449535 51.084427 -0.478141 -0.811280 -0.231987
-1.325282 -0.589084 51.731655 -0.459027 -0.815140 -0.232990
-1.322335 -0.691353 52.055576 -0.452226 -0.815240 -0.233614
-1.376286 -0.852489 52.391551 -0.446873 -0.824346 -0.235171
-1.350213 -1.041133 52.555139 -0.439649 -0.823354 -0.235059
-1.266130 -1.184759 52.679036 -0.426332 -0.821222 -0.233770
-1.168639 -1.240997 52.290071 -0.421047 -0.830251 -0.234029
-1.205441 -1.236617 52.068701 -0.422106 -0.855255 -0.236958
-1.161862 -1.258609 51.707178 -0.420349 -0.869481 -0.240720
-1.160344 -1.183774 51.223214 -0.437938 -0.890189 -0.245103
-1.126034 -1.167301 50.775515 -0.447215 -0.910709 -0.248718
-1.039739 -1.143045 50.205501 -0.449199 -0.913351 -0.247944
-1.067807 -1.096543 49.676104 -0.431101 -0.931309 -0.249026
-1.100628 -0.944521 48.991507 -0.409410 -0.932829 -0.245318
-1.259823 -0.731682 48.091298 -0.382986 -0.956717 -0.244501
-1.321139 -0.473542 47.046624 -0.385971 -0.954051 -0.240325
-1.315272 -0.262768 45.970562 -0.394974 -0.957226 -0.240612
-1.307267 -0.165771 45.009033 -0.387832 -0.971198 -0.240706
-1.248142 -0.080760 44.167111 -0.365134 -0.995358 -0.241854
-1.195858 0.087692 43.118578 -0.349420 -1.014288 -0.240268
-1.158020 0.475195 41.876762 -0.372476 -1.027734 -0.239402
-1.238601 0.706659 40.663509 -0.382542 -1.043401 -0.239192
-1.213132 0.556010 39.920932 -0.338220 -1.022146 -0.234683
-1.240365 0.518353 38.940093 -0.306202 -1.014874 -0.228816
-1.288702 0.849024 37.644679 -0.319913 -1.020530 -0.219416
-1.287477 0.978914 36.700384 -0.300858 -1.029233 -0.207747
-1.205665 0.925305 36.086459 -0.253534 -1.040735 -0.196603
-1.087323 1.099239 35.480939 -0.244056 -1.045758 -0.188347
-1.011468 1.416854 34.846411 -0.250056 -1.051061 -0.183660
-1.008383 1.570099 34.527656 -0.231943 -1.048141 -0.181169
-1.094080 1.563589 34.695022 -0.197084 -1.043471 -0.183240
-1.118477 1.476206 34.847349 -0.190631 -1.016445 -0.182809
-1.224753 1.447184 35.091698 -0.236735 -1.000521 -0.181588
-1.302817 1.148154 35.821270 -0.255982 -0.996301 -0.180473
-1.327035 0.927086 36.653435 -0.264632 -0.965625 -0.169760
-1.222287 1.143687 37.544060 -0.306331 -0.917778 -0.160035
-1.394743 1.140220 38.687080 -0.333446 -0.896369 -0.152988
-1.305099 0.920650 40.280379 -0.359426 -0.810971 -0.137706
-1.246025 0.643255 41.921502 -0.366489 -0.756568 -0.129912
-1.280725 0.225278 44.115035 -0.351894 -0.734516 -0.124749
-1.237629 -0.297260 46.888578 -0.343101 -0.698064 -0.121631
-1.300559 -0.319369 48.835943 -0.426553 -0.638393 -0.120862
-1.550475 -0.772799 51.597195 -0.440670 -0.593187 -0.129064
-1.667321 -1.808244 55.356853 -0.382138 -0.493694 -0.127541
-1.656988 -1.792507 57.053919 -0.498537 -0.377643 -0.120271
-2.041653 -2.001104 59.450863 -0.558082 -0.369448 -0.132793
-2.223281 -2.964641 62.198868 -0.527229 -0.289160 -0.125678
-1.984178 -3.131199 63.611512 -0.579303 -0.203044 -0.123679
-2.292837 -3.889351 65.829776 -0.575489 -0.272447 -0.148711
-1.982727 -4.402695 67.069395 -0.621055 -0.234605 -0.143795
-1.537063 -4.553715 68.819174 -0.680052 -0.264934 -0.159245
-1.607602 -5.323040 71.102131 -0.641328 -0.385529 -0.178940
-1.488358 -5.230052 72.403221 -0.738061 -0.445858 -0.186966
-1.944951 -5.683248 74.623333 -0.734198 -0.627976 -0.217876
-1.585970 -6.140892 75.780650 -0.745477 -0.618029 -0.212438
-1.567077 -5.982586 77.355506 -0.826137 -0.721679 -0.230381
-1.234272 -6.546705 79.104637 -0.808990 -0.818187 -0.239716
-0.871042 -6.821181 79.916152 -0.837484 -0.925330 -0.244511
-0.807137 -6.679963 80.384779 -0.906988 -1.072714 -0.263648
-0.482426 -6.865847 80.722724 -0.916821 -1.155091 -0.260318
0.142544 -7.002593 81.251825 -0.903177 -1.193825 -0.258096
0.074834 -6.736377 80.913134 -0.945690 -1.321656 -0.279433
0.755384 -6.458453 80.212337 -0.996249 -1.233364 -0.259951
0.138378 -5.987089 79.719560 -1.035724 -1.438361 -0.293980
0.553008 -5.678346 79.446429 -1.000331 -1.380357 -0.276985
1.008815 -4.901540 78.672933 -0.987358 -1.339586 -0.269917
0.935745 -3.880568 77.567183 -1.027840 -1.410939 -0.280356
0.410366 -3.377011 76.721481 -1.080074 -1.479209 -0.286113
1.081457 -3.711118 76.481940 -1.052816 -1.331891 -0.274212
0.709359 -3.450361 76.400364 -1.039320 -1.354669 -0.280231
0.253934 -2.366056 75.396724 -1.054212 -1.411057 -0.304284
0.022821 -1.416661 74.689047 -1.091657 -1.379409 -0.307376
0.341611 -1.132348 74.403475 -1.055392 -1.247903 -0.302406
-0.282870 -1.176422 74.386719 -0.983256 -1.274514 -0.320153
-0.106809 -0.804648 74.164679 -0.939225 -1.176183 -0.331036
-0.392667 -0.071662 73.464400 -0.918025 -1.152011 -0.350501
-1.114966 0.256946 72.847458 -0.846614 -1.257163 -0.393134
-0.866760 0.661774 71.459345 -0.759884 -1.119069 -0.388674
-1.965432 0.729656 70.904331 -0.660478 -1.296485 -0.413716
-1.276266 1.373396 68.947966 -0.635059 -1.119883 -0.399552
-1.884457 1.857956 67.552903 -0.614199 -1.194632 -0.419760
-1.608659 2.067367 66.415941 -0.560503 -1.101851 -0.417278
-2.014574 2.168436 65.398047 -0.489460 -1.132910 -0.430990
-2.009549 2.513701 64.115963 -0.472031 -1.141474 -0.446417
-1.337693 2.868720 62.342149 -0.464670 -0.934456 -0.418873
-2.235956 2.816378 60.789313 -0.383838 -1.120956 -0.456921
-1.948961 2.800961 59.236444 -0.341693 -0.988258 -0.423512
-1.686303 2.510011 57.713564 -0.276329 -0.908302 -0.412977
-2.338161 2.669040 55.944466 -0.263108 -1.011388 -0.432107
-2.685867 2.866134 54.486427 -0.218983 -1.037109 -0.437899
-2.346206 3.144308 53.037805 -0.132184 -0.949027 -0.436647
-2.571134 3.252890 52.444098 -0.117724 -0.994353 -0.450836
-3.015088 3.507470 51.581894 -0.134978 -1.026075 -0.461855
-2.889784 3.537394 50.928483 -0.138943 -0.940230 -0.452960
-2.877138 3.206717 51.113112 -0.088584 -0.878845 -0.440373
-2.846177 2.891347 51.248537 -0.049298 -0.796273 -0.414467
-2.562766 2.855776 51.296104 -0.055267 -0.652815 -0.376929
-2.676279 2.716544 51.567006 -0.043459 -0.598786 -0.356101
-2.482608 2.234937 52.291516 0.012407 -0.495033 -0.331057
-2.315294 2.142701 52.747308 0.011842 -0.407886 -0.308730
-2.166906 1.901629 53.054112 0.009331 -0.374736 -0.297352
-1.860153 1.320740 53.702700 0.022629 -0.294677 -0.275755
-1.572386 0.592734 54.417531 0.026975 -0.228983 -0.261334
-1.687071 0.021835 54.813553 0.029996 -0.219529 -0.249623
-1.449470 -0.213768 55.249684 0.067722 -0.142025 -0.222542
-1.249346 -0.291801 55.409509 0.125267 -0.086404 -0.201762
-1.208156 -0.463947 55.234275 0.136038 -0.039831 -0.185882
-1.149586 -0.749037 54.822431 0.121004 0.000153 -0.174837
-1.132653 -1.183696 54.263736 0.146573 0.003488 -0.171414
-0.995501 -1.214367 53.633309 0.168964 -0.000515 -0.167159
-0.903381 -0.875358 52.473765 0.139282 -0.026495 -0.162368
-0.604652 -0.795822 51.346979 0.110779 -0.031433 -0.155610
-0.424780 -1.155109 50.904372 0.131034 -0.054364 -0.149836
-0.305630 -1.405772 50.354901 0.145197 -0.061165 -0.141161
-0.478889 -1.104464 49.346765 0.108109 -0.090726 -0.135527
-0.620556 -0.875902 48.516368 0.088710 -0.099620 -0.126740
-0.627859 -0.968748 48.182213 0.101448 -0.092088 -0.116056
-0.729228 -1.029745 47.869701 0.098098 -0.098273 -0.109375
-0.732720 -0.874615 47.411215 0.063525 -0.081470 -0.101207
-0.799937 -0.763566 46.916542 0.041377 -0.070778 -0.093996
-0.873479 -0.699319 46.939520 0.045890 -0.083553 -0.091492
-0.891562 -0.633015 47.048131 0.059568 -0.100957 -0.086610
-0.753836 -0.456659 47.134709 0.065201 -0.096249 -0.078511
-0.735838 -0.228359 47.324140 0.052431 -0.102034 -0.075303
-0.871018 -0.245661 47.687259 0.035676 -0.119082 -0.075156
-0.993751 -0.640344 48.573891 0.033713 -0.118980 -0.072628
-0.998070 -0.818586 49.265066 0.005033 -0.096844 -0.064993
-1.110925 -0.720367 50.138173 -0.017183 -0.113610 -0.066619
-1.061876 -0.617591 51.273086 -0.029331 -0.089662 -0.061348
-0.846133 -0.877884 52.542901 -0.019672 -0.041576 -0.056282
-0.939441 -1.111604 53.775722 -0.030837 -0.052776 -0.059296
-0.995131 -1.246190 54.901677 -0.036612 -0.049237 -0.057895
-0.921011 -1.348407 55.963699 -0.021066 -0.029763 -0.054381
-0.855727 -1.391006 56.791677 -0.023401 -0.014317 -0.055531
-0.862923 -1.357921 57.740114 -0.050286 -0.012538 -0.066509
-0.844664 -1.649553 58.612674 -0.059251 0.018519 -0.080105
-0.883484 -1.957178 59.484082 -0.047467 0.025744 -0.094501
-0.912757 -2.126624 60.158167 -0.067394 0.053534 -0.101830
-1.015468 -2.253834 60.768925 -0.092488 0.061927 -0.112472
-1.080514 -2.441731 61.595120 -0.090516 0.090093 -0.116791
-1.114835 -2.698766 62.527328 -0.071756 0.122655 -0.119256
-1.097331 -2.759688 63.282090 -0.072542 0.139192 -0.121455
-1.067055 -2.716465 63.931942 -0.087052 0.130114 -0.124952
-0.991752 -2.810361 64.732014 -0.085065 0.112627 -0.129895
-0.907223 -2.955968 65.382590 -0.079823 0.101939 -0.133842
-0.896827 -3.070131 65.793634 -0.092169 0.066639 -0.141471
-0.972245 -3.073712 65.957753 -0.121749 0.008293 -0.151697
-0.761758 -3.174969 66.164052 -0.132205 0.003772 -0.150845
-0.732561 -3.204303 66.210064 -0.143098 -0.046905 -0.155846
-0.667085 -3.072492 66.093166 -0.169079 -0.092079 -0.158394
-0.636188 -2.824828 65.839686 -0.181736 -0.134890 -0.156516
-0.527410 -2.596998 65.510443 -0.171461 -0.171871 -0.158820
-0.572843 -2.503860 65.380517 -0.148153 -0.214941 -0.163324
-0.471808 -2.303725 65.036198 -0.148704 -0.233969 -0.164041
-0.558711 -2.122005 64.756568 -0.143641 -0.291896 -0.170994
-0.520386 -1.913927 64.452344 -0.139242 -0.319832 -0.170881
-0.582152 -1.663286 63.948650 -0.143453 -0.364164 -0.171698
-0.737698 -1.361362 63.303110 -0.160067 -0.419690 -0.177313
-0.887074 -1.081581 62.472124 -0.181004 -0.458585 -0.181757
-1.020174 -0.809909 61.558606 -0.197569 -0.493564 -0.188433
-1.154810 -0.555845 60.690943 -0.202815 -0.532977 -0.195028
-1.205222 -0.292773 59.757539 -0.199385 -0.563094 -0.196975
-1.166888 -0.027120 58.841520 -0.190639 -0.591054 -0.196721
-1.136051 0.141981 57.954526 -0.171671 -0.626328 -0.196601
-1.082443 0.290701 57.015502 -0.161396 -0.654011 -0.194916
-1.040738 0.322402 56.224377 -0.143463 -0.674513 -0.191616
-1.065076 0.564545 54.930510 -0.159076 -0.683248 -0.184219
-1.135670 0.703448 54.106155 -0.153439 -0.689086 -0.180901
-1.211921 0.912338 53.159437 -0.149490 -0.687609 -0.177899
-1.263435 0.972839 52.591961 -0.123751 -0.686708 -0.177943
-1.277664 1.382023 51.458644 -0.151368 -0.687830 -0.171145
-1.274841 1.642716 50.865307 -0.159911 -0.709948 -0.166041
-1.157979 1.666178 50.446385 -0.145063 -0.710008 -0.156252
-1.093526 1.620438 50.305259 -0.130828 -0.702015 -0.147515
-1.113382 1.583751 50.093744 -0.125451 -0.703321 -0.142154
-1.044427 1.590136 49.794282 -0.119146 -0.688620 -0.134548
-1.079800 1.456979 49.765429 -0.092919 -0.695895 -0.132293
-1.148761 1.228082 49.614033 -0.066223 -0.707969 -0.133325
-1.268082 1.205023 49.404488 -0.070996 -0.720303 -0.133383
-1.297299 1.190980 48.845096 -0.091042 -0.727181 -0.133164
-1.364132 1.096383 48.277292 -0.099512 -0.740192 -0.133372
-1.298505 1.031178 47.853831 -0.076570 -0.728775 -0.129363
-1.319269 1.174778 46.926149 -0.042201 -0.730115 -0.126737
-1.348795 1.209550 45.902987 -0.006949 -0.714632 -0.120699
-1.341180 1.012028 44.797998 0.021234 -0.687017 -0.113775
-1.313080 0.528518 43.894236 0.076144 -0.674451 -0.109435
-1.205306 0.279562 42.829470 0.120758 -0.662631 -0.103825
-1.086925 0.331806 41.540243 0.148031 -0.653413 -0.098649
-1.122541 0.370727 40.153410 0.173205 -0.669690 -0.096868
-1.132767 0.294497 38.858022 0.191943 -0.672349 -0.094693
-1.196103 0.071482 37.998954 0.229353 -0.691233 -0.095584
-1.187285 -0.015551 36.702957 0.253581 -0.693850 -0.092240
-1.144021 0.346429 34.847032 0.228527 -0.689006 -0.087667
-1.242534 0.620242 32.946403 0.222256 -0.691040 -0.081504
-1.164232 0.505327 31.187590 0.263124 -0.668290 -0.077513
-1.268294 -0.075812 30.291421 0.360008 -0.674945 -0.077948
-1.111219 -0.037829 28.031122 0.356106 -0.629017 -0.067405
-1.048587 0.789644 24.879677 0.278661 -0.641401 -0.068479
-1.126066 0.186352 23.995230 0.426163 -0.687552 -0.076650
-0.747891 0.205059 21.435981 0.461960 -0.608285 -0.062110
-1.109252 0.871115 19.315183 0.403207 -0.690234 -0.082812
-1.531368 0.589170 16.838773 0.448097 -0.728740 -0.084240
-1.167747 0.705856 15.405607 0.449723 -0.645549 -0.076715
-1.498929 0.302549 13.722784 0.534115 -0.714783 -0.090217
-1.144454 0.995280 11.297873 0.460808 -0.638702 -0.075374
-1.507982 1.064434 9.326244 0.467020 -0.706503 -0.081007
-1.208678 0.908069 7.844028 0.488595 -0.649092 -0.072335
-1.415592 0.508783 6.973801 0.550821 -0.658911 -0.071121
-1.492951 0.601584 5.358987 0.517808 -0.670826 -0.074398
-0.912757 0.718145 3.613179 0.480554 -0.569984 -0.056308
-1.027939 0.525645 3.081981 0.495212 -0.592237 -0.061075
-1.149217 0.649122 1.080961 0.429800 -0.633324 -0.060536
-1.330576 0.348834 1.301453 0.442391 -0.697166 -0.075353
-0.872609 0.531155 -0.402274 0.355676 -0.605486 -0.053989
-1.428202 -0.243027 0.749229 0.447150 -0.698390 -0.066425
-1.148660 0.249169 -0.902439 0.334691 -0.670164 -0.058674
-0.859172 -0.238320 0.237317 0.404907 -0.615191 -0.052760
-0.957239 -0.172191 -0.837944 0.367712 -0.629738 -0.050985
-0.905487 -0.296025 -0.068001 0.389148 -0.598310 -0.045944
-1.254991 -0.255534 -0.339281 0.374301 -0.657182 -0.057435
-0.670201 0.161119 -1.001216 0.307579 -0.525192 -0.036838
-0.834886 -0.230825 -0.091236 0.368935 -0.585346 -0.051770
-0.850504 -0.012557 -0.540133 0.316076 -0.564432 -0.045870
-1.020991 0.382257 -0.859884 0.256707 -0.615818 -0.054103
-1.118327 0.774134 -0.993074 0.183902 -0.606398 -0.047135
-0.981645 0.178969 -0.014693 0.241157 -0.600876 -0.046027
-0.690620 -0.082316 0.513645 0.264806 -0.567134 -0.042341
-0.942005 0.870334 -0.714509 0.108736 -0.611262 -0.041343
-1.095904 1.092798 -0.630385 0.062411 -0.628973 -0.040162
-0.780020 0.523305 -0.059012 0.115360 -0.579226 -0.024775
-0.924974 0.042236 0.751341 0.156386 -0.594694 -0.022579
-1.054750 0.623590 0.397741 0.047364 -0.630702 -0.025014
-1.098778 0.742212 0.192415 0.007860 -0.620690 -0.023559
-0.599230 0.358904 1.087391 0.060109 -0.562150 -0.021749
-1.393247 0.241558 1.403132 0.076488 -0.717861 -0.042845
-0.546340 0.415414 1.262736 0.058147 -0.599921 -0.021140
-1.318333 0.571443 1.268011 0.047848 -0.724834 -0.020725
-0.715030 0.157871 1.566264 0.108786 -0.657045 0.002074
-0.894758 0.136102 1.773153 0.115459 -0.683315 0.011286
-0.518609 0.060763 1.732169 0.122098 -0.661766 0.017559
-0.915231 -0.130675 2.030678 0.143419 -0.704876 0.022470
-0.529485 -0.581757 2.265727 0.197105 -0.643639 0.032327
